Name,Experiment,ExperimentNum,Participant,DominantEye,Trial,SubTrial,Condition,Congruency,Alignment,SameDifferent,FaceGroup,StudyUpper,StudyLower,TargetLower1,TargetLower2,thisResponse,isCorrect,reactionTime,studyDuration,targetDuration,maskDuration,trialEndTime
8201,10802_CF_CFS_Catch_identity,108,8201,L,1,1,Complete,I,M,S,F3,F3079.png,F3112.png,F3079.png,F3047.png,S,1,0.813864998,0.3,0.3,0.5,2017-09-11-15:59:36
8201,10802_CF_CFS_Catch_identity,108,8201,L,2,2,Complete,I,A,S,F4,F4040.png,F4018.png,F4040.png,F4064.png,S,1,0.607765254,0.3,0.3,0.5,2017-09-11-15:59:38
8201,10802_CF_CFS_Catch_identity,108,8201,L,3,3,Complete,I,A,D,F2,F2016.png,F2017.png,F2067.png,F2017.png,D,1,0.929523574,0.3,0.3,0.5,2017-09-11-15:59:41
8201,10802_CF_CFS_Catch_identity,108,8201,L,4,4,Complete,C,A,D,M4,M4134.png,M4188.png,M4136.png,M4197.png,D,1,0.710965575,0.3,0.3,0.5,2017-09-11-15:59:44
8201,10802_CF_CFS_Catch_identity,108,8201,L,5,5,Complete,C,M,S,F4,F4018.png,F4064.png,F4018.png,F4064.png,S,1,0.700697242,0.3,0.3,0.5,2017-09-11-15:59:46
8201,10802_CF_CFS_Catch_identity,10802,8201,L,6,1,CatchOnly,NaN,A,NaN,2,F2017.png,F2032.png,F2032.png,F2067.png,2,1,20.21273046,0.3,NaN,0.5,2017-09-11-16:00:08
8201,10802_CF_CFS_Catch_identity,108,8201,L,7,6,Complete,C,A,S,F2,F2017.png,F2032.png,F2017.png,F2032.png,D,0,1.975652011,0.3,0.3,0.5,2017-09-11-16:00:12
8201,10802_CF_CFS_Catch_identity,108,8201,L,8,7,Complete,C,A,S,M2,M2142.png,M2141.png,M2142.png,M2141.png,S,1,0.779668879,0.3,0.3,0.5,2017-09-11-16:00:15
8201,10802_CF_CFS_Catch_identity,108,8201,L,9,8,Complete,I,M,S,M2,M2141.png,M2201.png,M2141.png,M2198.png,S,1,0.71947764,0.3,0.3,0.5,2017-09-11-16:00:18
8201,10802_CF_CFS_Catch_identity,10802,8201,L,10,2,CatchOnly,NaN,A,NaN,10,M5152.png,M5154.png,M5154.png,M5146.png,2,0,7.716799507,0.3,NaN,0.5,2017-09-11-16:00:27
8201,10802_CF_CFS_Catch_identity,108,8201,L,11,9,Complete,C,A,D,F4,F4020.png,F4040.png,F4018.png,F4064.png,D,1,0.7449478,0.3,0.3,0.5,2017-09-11-16:00:30
8201,10802_CF_CFS_Catch_identity,108,8201,L,12,10,Complete,I,A,S,F1,F1046.png,F1015.png,F1046.png,F1059.png,S,1,0.886062019,0.3,0.3,0.5,2017-09-11-16:00:33
8201,10802_CF_CFS_Catch_identity,108,8201,L,13,11,Complete,I,M,D,M4,M4134.png,M4188.png,M4197.png,M4188.png,D,1,1.82934651,0.3,0.3,0.5,2017-09-11-16:00:36
8201,10802_CF_CFS_Catch_identity,108,8201,L,14,12,Complete,I,A,D,F2,F2017.png,F2032.png,F2016.png,F2032.png,D,1,0.910971392,0.3,0.3,0.5,2017-09-11-16:00:39
8201,10802_CF_CFS_Catch_identity,108,8201,L,15,13,Complete,I,M,D,M3,M3183.png,M3153.png,M3013.png,M3153.png,D,1,0.685328885,0.3,0.3,0.5,2017-09-11-16:00:42
8201,10802_CF_CFS_Catch_identity,108,8201,L,16,14,Complete,C,A,S,F1,F1002.png,F1046.png,F1002.png,F1046.png,S,1,1.404832666,0.3,0.3,0.5,2017-09-11-16:00:45
8201,10802_CF_CFS_Catch_identity,108,8201,L,17,15,Complete,C,M,S,F1,F1046.png,F1015.png,F1046.png,F1015.png,S,1,0.735399649,0.3,0.3,0.5,2017-09-11-16:00:48
8201,10802_CF_CFS_Catch_identity,108,8201,L,18,16,Complete,I,M,S,M1,M1122.png,M1186.png,M1122.png,M1119.png,S,1,0.756918683,0.3,0.3,0.5,2017-09-11-16:00:50
8201,10802_CF_CFS_Catch_identity,108,8201,L,19,17,Complete,I,A,D,F4,F4018.png,F4064.png,F4040.png,F4064.png,D,1,0.689708679,0.3,0.3,0.5,2017-09-11-16:00:53
8201,10802_CF_CFS_Catch_identity,108,8201,L,20,18,Complete,C,M,S,F5,F5033.png,F5068.png,F5033.png,F5068.png,S,1,0.61711305,0.3,0.3,0.5,2017-09-11-16:00:56
8201,10802_CF_CFS_Catch_identity,10802,8201,L,21,3,CatchOnly,NaN,M,NaN,4,F4018.png,F4064.png,F4064.png,F4020.png,2,0,4.956102201,0.3,NaN,0.5,2017-09-11-16:01:02
8201,10802_CF_CFS_Catch_identity,108,8201,L,22,19,Complete,C,M,D,F1,F1002.png,F1046.png,F1015.png,F1059.png,D,1,0.893922627,0.3,0.3,0.5,2017-09-11-16:01:05
8201,10802_CF_CFS_Catch_identity,108,8201,L,23,20,Complete,C,A,S,M4,M4136.png,M4197.png,M4136.png,M4197.png,S,1,0.932943044,0.3,0.3,0.5,2017-09-11-16:01:08
8201,10802_CF_CFS_Catch_identity,108,8201,L,24,21,Complete,I,M,S,M4,M4134.png,M4188.png,M4134.png,M4136.png,S,1,1.442612293,0.3,0.3,0.5,2017-09-11-16:01:11
8201,10802_CF_CFS_Catch_identity,108,8201,L,25,22,Complete,C,M,D,F3,F3112.png,F3047.png,F3062.png,F3079.png,D,1,0.659652309,0.3,0.3,0.5,2017-09-11-16:01:14
8201,10802_CF_CFS_Catch_identity,108,8201,L,26,23,Complete,I,M,D,M5,M5152.png,M5154.png,M5178.png,M5154.png,D,1,1.452409287,0.3,0.3,0.5,2017-09-11-16:01:17
8201,10802_CF_CFS_Catch_identity,108,8201,L,27,24,Complete,C,A,D,M4,M4188.png,M4136.png,M4197.png,M4134.png,D,1,0.709139851,0.3,0.3,0.5,2017-09-11-16:01:20
8201,10802_CF_CFS_Catch_identity,108,8201,L,28,25,Complete,C,A,D,F4,F4040.png,F4018.png,F4064.png,F4020.png,S,0,1.011826259,0.3,0.3,0.5,2017-09-11-16:01:23
8201,10802_CF_CFS_Catch_identity,108,8201,L,29,26,Complete,C,M,S,M4,M4134.png,M4188.png,M4134.png,M4188.png,S,1,1.158254788,0.3,0.3,0.5,2017-09-11-16:01:26
8201,10802_CF_CFS_Catch_identity,108,8201,L,30,27,Complete,C,A,S,M5,M5146.png,M5178.png,M5146.png,M5178.png,S,1,0.578968689,0.3,0.3,0.5,2017-09-11-16:01:28
8201,10802_CF_CFS_Catch_identity,108,8201,L,31,28,Complete,C,M,D,F2,F2067.png,F2016.png,F2017.png,F2032.png,D,1,0.654697699,0.3,0.3,0.5,2017-09-11-16:01:31
8201,10802_CF_CFS_Catch_identity,108,8201,L,32,29,Complete,C,A,S,M1,M1122.png,M1186.png,M1122.png,M1186.png,S,1,1.279538543,0.3,0.3,0.5,2017-09-11-16:01:34
8201,10802_CF_CFS_Catch_identity,10802,8201,L,33,4,CatchOnly,NaN,A,NaN,4,F4018.png,F4064.png,F4064.png,F4020.png,2,1,8.926208696,0.3,NaN,0.5,2017-09-11-16:01:45
8201,10802_CF_CFS_Catch_identity,108,8201,L,34,30,Complete,I,A,D,F3,F3062.png,F3079.png,F3047.png,F3079.png,D,1,0.794328932,0.3,0.3,0.5,2017-09-11-16:01:47
8201,10802_CF_CFS_Catch_identity,108,8201,L,35,31,Complete,I,M,S,M4,M4188.png,M4136.png,M4188.png,M4197.png,S,1,0.821429448,0.3,0.3,0.5,2017-09-11-16:01:50
8201,10802_CF_CFS_Catch_identity,108,8201,L,36,32,Complete,C,M,S,M5,M5152.png,M5154.png,M5152.png,M5154.png,S,1,0.607469194,0.3,0.3,0.5,2017-09-11-16:01:53
8201,10802_CF_CFS_Catch_identity,108,8201,L,37,33,Complete,I,M,S,M1,M1186.png,M1119.png,M1186.png,M1125.png,S,1,0.418411176,0.3,0.3,0.5,2017-09-11-16:01:55
8201,10802_CF_CFS_Catch_identity,108,8201,L,38,34,Complete,I,M,D,M1,M1186.png,M1119.png,M1122.png,M1119.png,D,1,0.5564994,0.3,0.3,0.5,2017-09-11-16:01:57
8201,10802_CF_CFS_Catch_identity,108,8201,L,39,35,Complete,I,M,S,F1,F1002.png,F1046.png,F1002.png,F1015.png,S,1,0.641266999,0.3,0.3,0.5,2017-09-11-16:02:00
8201,10802_CF_CFS_Catch_identity,108,8201,L,40,36,Complete,C,M,D,F5,F5078.png,F5076.png,F5033.png,F5068.png,D,1,0.626834428,0.3,0.3,0.5,2017-09-11-16:02:03
8201,10802_CF_CFS_Catch_identity,108,8201,L,41,37,Complete,I,M,D,F2,F2067.png,F2016.png,F2032.png,F2016.png,S,0,1.380551485,0.3,0.3,0.5,2017-09-11-16:02:06
8201,10802_CF_CFS_Catch_identity,108,8201,L,42,38,Complete,I,M,S,F2,F2032.png,F2067.png,F2032.png,F2016.png,S,1,0.560207109,0.3,0.3,0.5,2017-09-11-16:02:08
8201,10802_CF_CFS_Catch_identity,108,8201,L,43,39,Complete,I,A,S,M2,M2141.png,M2201.png,M2141.png,M2198.png,S,1,0.524745759,0.3,0.3,0.5,2017-09-11-16:02:11
8201,10802_CF_CFS_Catch_identity,108,8201,L,44,40,Complete,I,A,S,F5,F5076.png,F5033.png,F5076.png,F5068.png,S,1,0.635668117,0.3,0.3,0.5,2017-09-11-16:02:41
8201,10802_CF_CFS_Catch_identity,108,8201,L,45,41,Complete,I,A,S,M5,M5152.png,M5154.png,M5152.png,M5146.png,S,1,0.692758038,0.3,0.3,0.5,2017-09-11-16:02:44
8201,10802_CF_CFS_Catch_identity,108,8201,L,46,42,Complete,C,A,S,M1,M1119.png,M1125.png,M1119.png,M1125.png,S,1,0.651876018,0.3,0.3,0.5,2017-09-11-16:02:47
8201,10802_CF_CFS_Catch_identity,108,8201,L,47,43,Complete,I,A,S,M4,M4134.png,M4188.png,M4134.png,M4136.png,S,1,0.66112459,0.3,0.3,0.5,2017-09-11-16:02:49
8201,10802_CF_CFS_Catch_identity,108,8201,L,48,44,Complete,C,A,S,F3,F3112.png,F3047.png,F3112.png,F3047.png,S,1,0.557535242,0.3,0.3,0.5,2017-09-11-16:02:52
8201,10802_CF_CFS_Catch_identity,108,8201,L,49,45,Complete,C,M,S,F1,F1059.png,F1002.png,F1059.png,F1002.png,S,1,0.658353499,0.3,0.3,0.5,2017-09-11-16:02:54
8201,10802_CF_CFS_Catch_identity,108,8201,L,50,46,Complete,C,M,D,F5,F5068.png,F5078.png,F5076.png,F5033.png,D,1,0.659101102,0.3,0.3,0.5,2017-09-11-16:02:57
8201,10802_CF_CFS_Catch_identity,108,8201,L,51,47,Complete,I,A,S,M5,M5178.png,M5152.png,M5178.png,M5154.png,S,1,0.571890779,0.3,0.3,0.5,2017-09-11-16:02:59
8201,10802_CF_CFS_Catch_identity,108,8201,L,52,48,Complete,I,M,S,F4,F4064.png,F4020.png,F4064.png,F4040.png,S,1,0.848023432,0.3,0.3,0.5,2017-09-11-16:03:02
8201,10802_CF_CFS_Catch_identity,108,8201,L,53,49,Complete,C,A,S,M1,M1186.png,M1119.png,M1186.png,M1119.png,S,1,0.801113128,0.3,0.3,0.5,2017-09-11-16:03:05
8201,10802_CF_CFS_Catch_identity,108,8201,L,54,50,Complete,I,M,S,M5,M5178.png,M5152.png,M5178.png,M5154.png,S,1,0.676273042,0.3,0.3,0.5,2017-09-11-16:03:07
8201,10802_CF_CFS_Catch_identity,108,8201,L,55,51,Complete,C,A,S,F4,F4020.png,F4040.png,F4020.png,F4040.png,S,1,0.644416609,0.3,0.3,0.5,2017-09-11-16:03:10
8201,10802_CF_CFS_Catch_identity,108,8201,L,56,52,Complete,C,A,S,M2,M2201.png,M2198.png,M2201.png,M2198.png,S,1,0.765490967,0.3,0.3,0.5,2017-09-11-16:03:12
8201,10802_CF_CFS_Catch_identity,108,8201,L,57,53,Complete,I,M,D,F1,F1059.png,F1002.png,F1015.png,F1002.png,D,1,0.617947706,0.3,0.3,0.5,2017-09-11-16:03:15
8201,10802_CF_CFS_Catch_identity,108,8201,L,58,54,Complete,C,A,S,F2,F2016.png,F2017.png,F2016.png,F2017.png,S,1,0.732389442,0.3,0.3,0.5,2017-09-11-16:03:18
8201,10802_CF_CFS_Catch_identity,10802,8201,L,59,5,CatchOnly,NaN,M,NaN,9,M4197.png,M4134.png,M4134.png,M4188.png,1,1,4.436694467,0.3,NaN,0.5,2017-09-11-16:03:24
8201,10802_CF_CFS_Catch_identity,108,8201,L,60,55,Complete,C,A,S,F4,F4018.png,F4064.png,F4018.png,F4064.png,S,1,0.776181174,0.3,0.3,0.5,2017-09-11-16:03:27
8201,10802_CF_CFS_Catch_identity,108,8201,L,61,56,Complete,C,M,D,F3,F3062.png,F3079.png,F3112.png,F3047.png,D,1,0.739941428,0.3,0.3,0.5,2017-09-11-16:03:29
8201,10802_CF_CFS_Catch_identity,108,8201,L,62,57,Complete,C,A,D,M1,M1186.png,M1119.png,M1125.png,M1122.png,D,1,0.633461576,0.3,0.3,0.5,2017-09-11-16:03:32
8201,10802_CF_CFS_Catch_identity,10802,8201,L,63,6,CatchOnly,NaN,A,NaN,5,F5068.png,F5078.png,F5078.png,F5076.png,2,0,6.56489312,0.3,NaN,0.5,2017-09-11-16:03:40
8201,10802_CF_CFS_Catch_identity,108,8201,L,64,58,Complete,I,A,S,F2,F2032.png,F2067.png,F2032.png,F2016.png,S,1,1.461421921,0.3,0.3,0.5,2017-09-11-16:03:43
8201,10802_CF_CFS_Catch_identity,108,8201,L,65,59,Complete,I,A,D,M1,M1186.png,M1119.png,M1122.png,M1119.png,D,1,0.581865692,0.3,0.3,0.5,2017-09-11-16:03:46
8201,10802_CF_CFS_Catch_identity,108,8201,L,66,60,Complete,C,A,D,F1,F1059.png,F1002.png,F1046.png,F1015.png,S,0,0.825618077,0.3,0.3,0.5,2017-09-11-16:03:49
8201,10802_CF_CFS_Catch_identity,108,8201,L,67,61,Complete,I,A,S,M5,M5146.png,M5178.png,M5146.png,M5152.png,S,1,0.699682956,0.3,0.3,0.5,2017-09-11-16:03:51
8201,10802_CF_CFS_Catch_identity,108,8201,L,68,62,Complete,I,M,D,F2,F2016.png,F2017.png,F2067.png,F2017.png,D,1,0.634929068,0.3,0.3,0.5,2017-09-11-16:03:54
8201,10802_CF_CFS_Catch_identity,108,8201,L,69,63,Complete,I,M,D,M4,M4136.png,M4197.png,M4188.png,M4197.png,D,1,0.604672539,0.3,0.3,0.5,2017-09-11-16:03:56
8201,10802_CF_CFS_Catch_identity,108,8201,L,70,64,Complete,C,M,D,M5,M5154.png,M5146.png,M5178.png,M5152.png,D,1,0.695410696,0.3,0.3,0.5,2017-09-11-16:03:59
8201,10802_CF_CFS_Catch_identity,108,8201,L,71,65,Complete,C,M,S,M5,M5146.png,M5178.png,M5146.png,M5178.png,S,1,0.614567584,0.3,0.3,0.5,2017-09-11-16:04:01
8201,10802_CF_CFS_Catch_identity,108,8201,L,72,66,Complete,I,A,D,F1,F1002.png,F1046.png,F1059.png,F1046.png,D,1,0.664976199,0.3,0.3,0.5,2017-09-11-16:04:04
8201,10802_CF_CFS_Catch_identity,108,8201,L,73,67,Complete,I,A,S,M3,M3183.png,M3153.png,M3183.png,M3187.png,D,0,0.593538903,0.3,0.3,0.5,2017-09-11-16:04:07
8201,10802_CF_CFS_Catch_identity,108,8201,L,74,68,Complete,C,M,S,M4,M4197.png,M4134.png,M4197.png,M4134.png,S,1,1.10854607,0.3,0.3,0.5,2017-09-11-16:04:10
8201,10802_CF_CFS_Catch_identity,108,8201,L,75,69,Complete,C,A,D,M2,M2198.png,M2142.png,M2141.png,M2201.png,D,1,0.587311046,0.3,0.3,0.5,2017-09-11-16:04:12
8201,10802_CF_CFS_Catch_identity,108,8201,L,76,70,Complete,I,A,D,M5,M5146.png,M5178.png,M5154.png,M5178.png,D,1,0.590751486,0.3,0.3,0.5,2017-09-11-16:04:15
8201,10802_CF_CFS_Catch_identity,108,8201,L,77,71,Complete,C,A,D,M5,M5154.png,M5146.png,M5178.png,M5152.png,D,1,1.12226276,0.3,0.3,0.5,2017-09-11-16:04:18
8201,10802_CF_CFS_Catch_identity,108,8201,L,78,72,Complete,I,M,S,M5,M5154.png,M5146.png,M5154.png,M5178.png,S,1,0.944276155,0.3,0.3,0.5,2017-09-11-16:04:20
8201,10802_CF_CFS_Catch_identity,10802,8201,L,79,7,CatchOnly,NaN,M,NaN,10,M5152.png,M5154.png,M5154.png,M5146.png,1,0,3.045580504,0.3,NaN,0.5,2017-09-11-16:04:25
8201,10802_CF_CFS_Catch_identity,108,8201,L,80,73,Complete,I,M,S,M3,M3187.png,M3013.png,M3187.png,M3183.png,S,1,0.973398449,0.3,0.3,0.5,2017-09-11-16:04:28
8201,10802_CF_CFS_Catch_identity,108,8201,L,81,74,Complete,I,A,S,M2,M2198.png,M2142.png,M2198.png,M2141.png,S,1,1.017346936,0.3,0.3,0.5,2017-09-11-16:04:31
8201,10802_CF_CFS_Catch_identity,108,8201,L,82,75,Complete,C,M,S,F4,F4040.png,F4018.png,F4040.png,F4018.png,S,1,0.667842751,0.3,0.3,0.5,2017-09-11-16:04:34
8201,10802_CF_CFS_Catch_identity,108,8201,L,83,76,Complete,I,M,S,F4,F4018.png,F4064.png,F4018.png,F4020.png,S,1,1.132221641,0.3,0.3,0.5,2017-09-11-16:04:37
8201,10802_CF_CFS_Catch_identity,108,8201,L,84,77,Complete,C,M,S,M5,M5154.png,M5146.png,M5154.png,M5146.png,S,1,0.761970904,0.3,0.3,0.5,2017-09-11-16:04:39
8201,10802_CF_CFS_Catch_identity,108,8201,L,85,78,Complete,I,A,S,M1,M1119.png,M1125.png,M1119.png,M1122.png,S,1,0.774395334,0.3,0.3,0.5,2017-09-11-16:04:42
8201,10802_CF_CFS_Catch_identity,108,8201,L,86,79,Complete,C,A,D,M2,M2201.png,M2198.png,M2142.png,M2141.png,S,0,1.242485159,0.3,0.3,0.5,2017-09-11-16:04:45
8201,10802_CF_CFS_Catch_identity,108,8201,L,87,80,Complete,I,A,S,F5,F5068.png,F5078.png,F5068.png,F5076.png,S,1,0.705687534,0.3,0.3,0.5,2017-09-11-16:05:00
8201,10802_CF_CFS_Catch_identity,108,8201,L,88,81,Complete,I,M,S,M3,M3183.png,M3153.png,M3183.png,M3187.png,S,1,0.608532359,0.3,0.3,0.5,2017-09-11-16:05:02
8201,10802_CF_CFS_Catch_identity,10802,8201,L,89,8,CatchOnly,NaN,M,NaN,8,M3187.png,M3013.png,M3013.png,M3183.png,1,1,4.990247975,0.3,NaN,0.5,2017-09-11-16:05:09
8201,10802_CF_CFS_Catch_identity,108,8201,L,90,82,Complete,C,A,D,M3,M3013.png,M3183.png,M3153.png,M3187.png,S,0,0.956995325,0.3,0.3,0.5,2017-09-11-16:05:12
8201,10802_CF_CFS_Catch_identity,108,8201,L,91,83,Complete,I,M,D,F4,F4040.png,F4018.png,F4020.png,F4018.png,D,1,0.593751037,0.3,0.3,0.5,2017-09-11-16:05:14
8201,10802_CF_CFS_Catch_identity,108,8201,L,92,84,Complete,I,M,D,M2,M2201.png,M2198.png,M2141.png,M2198.png,S,0,0.924876804,0.3,0.3,0.5,2017-09-11-16:05:17
8201,10802_CF_CFS_Catch_identity,108,8201,L,93,85,Complete,I,A,D,M5,M5178.png,M5152.png,M5146.png,M5152.png,D,1,1.282916271,0.3,0.3,0.5,2017-09-11-16:05:20
8201,10802_CF_CFS_Catch_identity,108,8201,L,94,86,Complete,I,M,S,F4,F4020.png,F4040.png,F4020.png,F4018.png,S,1,1.090604091,0.3,0.3,0.5,2017-09-11-16:05:23
8201,10802_CF_CFS_Catch_identity,108,8201,L,95,87,Complete,C,M,S,F2,F2067.png,F2016.png,F2067.png,F2016.png,S,1,0.793961803,0.3,0.3,0.5,2017-09-11-16:05:26
8201,10802_CF_CFS_Catch_identity,108,8201,L,96,88,Complete,C,M,S,F1,F1015.png,F1059.png,F1015.png,F1059.png,S,1,0.92542151,0.3,0.3,0.5,2017-09-11-16:05:29
8201,10802_CF_CFS_Catch_identity,108,8201,L,97,89,Complete,I,M,D,F3,F3047.png,F3062.png,F3112.png,F3062.png,D,1,0.483411023,0.3,0.3,0.5,2017-09-11-16:05:31
8201,10802_CF_CFS_Catch_identity,108,8201,L,98,90,Complete,I,M,S,M4,M4197.png,M4134.png,M4197.png,M4188.png,D,0,0.483325485,0.3,0.3,0.5,2017-09-11-16:05:34
8201,10802_CF_CFS_Catch_identity,108,8201,L,99,91,Complete,C,M,D,M4,M4188.png,M4136.png,M4197.png,M4134.png,D,1,0.931016043,0.3,0.3,0.5,2017-09-11-16:05:36
8201,10802_CF_CFS_Catch_identity,108,8201,L,100,92,Complete,I,A,S,F3,F3047.png,F3062.png,F3047.png,F3079.png,S,1,0.560803481,0.3,0.3,0.5,2017-09-11-16:05:39
8201,10802_CF_CFS_Catch_identity,108,8201,L,101,93,Complete,I,A,D,F1,F1046.png,F1015.png,F1002.png,F1015.png,D,1,0.797307026,0.3,0.3,0.5,2017-09-11-16:05:42
8201,10802_CF_CFS_Catch_identity,108,8201,L,102,94,Complete,I,M,D,M2,M2141.png,M2201.png,M2142.png,M2201.png,D,1,0.784385644,0.3,0.3,0.5,2017-09-11-16:05:44
8201,10802_CF_CFS_Catch_identity,108,8201,L,103,95,Complete,I,M,S,M5,M5152.png,M5154.png,M5152.png,M5146.png,S,1,0.867777742,0.3,0.3,0.5,2017-09-11-16:05:47
8201,10802_CF_CFS_Catch_identity,108,8201,L,104,96,Complete,C,A,D,F3,F3112.png,F3047.png,F3062.png,F3079.png,D,1,0.748225277,0.3,0.3,0.5,2017-09-11-16:05:50
8201,10802_CF_CFS_Catch_identity,108,8201,L,105,97,Complete,C,A,S,F5,F5078.png,F5076.png,F5078.png,F5076.png,S,1,1.06533717,0.3,0.3,0.5,2017-09-11-16:05:53
8201,10802_CF_CFS_Catch_identity,108,8201,L,106,98,Complete,C,M,S,F3,F3047.png,F3062.png,F3047.png,F3062.png,S,1,0.841707447,0.3,0.3,0.5,2017-09-11-16:05:55
8201,10802_CF_CFS_Catch_identity,108,8201,L,107,99,Complete,I,M,D,F1,F1046.png,F1015.png,F1002.png,F1015.png,D,1,0.683113888,0.3,0.3,0.5,2017-09-11-16:05:58
8201,10802_CF_CFS_Catch_identity,108,8201,L,108,100,Complete,I,A,S,M3,M3013.png,M3183.png,M3013.png,M3153.png,S,1,1.034947886,0.3,0.3,0.5,2017-09-11-16:06:01
8201,10802_CF_CFS_Catch_identity,108,8201,L,109,101,Complete,C,A,D,M3,M3187.png,M3013.png,M3183.png,M3153.png,D,1,1.036570372,0.3,0.3,0.5,2017-09-11-16:06:04
8201,10802_CF_CFS_Catch_identity,108,8201,L,110,102,Complete,C,M,D,F5,F5076.png,F5033.png,F5068.png,F5078.png,D,1,0.717996316,0.3,0.3,0.5,2017-09-11-16:06:07
8201,10802_CF_CFS_Catch_identity,108,8201,L,111,103,Complete,I,A,S,F5,F5033.png,F5068.png,F5033.png,F5078.png,S,1,0.700187778,0.3,0.3,0.5,2017-09-11-16:06:09
8201,10802_CF_CFS_Catch_identity,108,8201,L,112,104,Complete,I,M,S,M1,M1125.png,M1122.png,M1125.png,M1186.png,S,1,1.131250417,0.3,0.3,0.5,2017-09-11-16:06:12
8201,10802_CF_CFS_Catch_identity,108,8201,L,113,105,Complete,I,A,S,M1,M1125.png,M1122.png,M1125.png,M1186.png,S,1,0.86493519,0.3,0.3,0.5,2017-09-11-16:06:15
8201,10802_CF_CFS_Catch_identity,108,8201,L,114,106,Complete,C,M,D,F1,F1046.png,F1015.png,F1059.png,F1002.png,D,1,0.649402795,0.3,0.3,0.5,2017-09-11-16:06:17
8201,10802_CF_CFS_Catch_identity,108,8201,L,115,107,Complete,I,A,D,M1,M1125.png,M1122.png,M1119.png,M1122.png,D,1,1.01855879,0.3,0.3,0.5,2017-09-11-16:06:20
8201,10802_CF_CFS_Catch_identity,108,8201,L,116,108,Complete,I,A,D,F3,F3112.png,F3047.png,F3079.png,F3047.png,D,1,0.676602534,0.3,0.3,0.5,2017-09-11-16:06:23
8201,10802_CF_CFS_Catch_identity,108,8201,L,117,109,Complete,C,A,D,F3,F3047.png,F3062.png,F3079.png,F3112.png,D,1,0.716701759,0.3,0.3,0.5,2017-09-11-16:06:26
8201,10802_CF_CFS_Catch_identity,108,8201,L,118,110,Complete,C,M,S,M4,M4136.png,M4197.png,M4136.png,M4197.png,D,0,1.147138944,0.3,0.3,0.5,2017-09-11-16:06:29
8201,10802_CF_CFS_Catch_identity,108,8201,L,119,111,Complete,I,A,D,F5,F5033.png,F5068.png,F5076.png,F5068.png,D,1,0.696186306,0.3,0.3,0.5,2017-09-11-16:06:31
8201,10802_CF_CFS_Catch_identity,108,8201,L,120,112,Complete,C,M,D,M5,M5152.png,M5154.png,M5146.png,M5178.png,D,1,0.695340848,0.3,0.3,0.5,2017-09-11-16:06:34
8201,10802_CF_CFS_Catch_identity,108,8201,L,121,113,Complete,C,A,D,F2,F2016.png,F2017.png,F2032.png,F2067.png,D,1,0.766388188,0.3,0.3,0.5,2017-09-11-16:06:37
8201,10802_CF_CFS_Catch_identity,108,8201,L,122,114,Complete,C,M,S,F3,F3112.png,F3047.png,F3112.png,F3047.png,S,1,0.930789636,0.3,0.3,0.5,2017-09-11-16:06:39
8201,10802_CF_CFS_Catch_identity,108,8201,L,123,115,Complete,I,A,D,M3,M3153.png,M3187.png,M3183.png,M3187.png,D,1,1.096530854,0.3,0.3,0.5,2017-09-11-16:06:42
8201,10802_CF_CFS_Catch_identity,108,8201,L,124,116,Complete,I,A,S,F2,F2017.png,F2032.png,F2017.png,F2067.png,S,1,0.871564195,0.3,0.3,0.5,2017-09-11-16:06:45
8201,10802_CF_CFS_Catch_identity,108,8201,L,125,117,Complete,C,M,D,M2,M2201.png,M2198.png,M2142.png,M2141.png,D,1,1.167659284,0.3,0.3,0.5,2017-09-11-16:06:48
8201,10802_CF_CFS_Catch_identity,108,8201,L,126,118,Complete,C,A,D,M4,M4197.png,M4134.png,M4188.png,M4136.png,D,1,1.268023065,0.3,0.3,0.5,2017-09-11-16:06:51
8201,10802_CF_CFS_Catch_identity,108,8201,L,127,119,Complete,I,M,S,M3,M3013.png,M3183.png,M3013.png,M3153.png,S,1,0.612413735,0.3,0.3,0.5,2017-09-11-16:06:54
8201,10802_CF_CFS_Catch_identity,108,8201,L,128,120,Complete,I,A,S,M4,M4197.png,M4134.png,M4197.png,M4188.png,S,1,0.677954378,0.3,0.3,0.5,2017-09-11-16:07:20
8201,10802_CF_CFS_Catch_identity,108,8201,L,129,121,Complete,I,M,D,F2,F2032.png,F2067.png,F2017.png,F2067.png,D,1,1.285673677,0.3,0.3,0.5,2017-09-11-16:07:23
8201,10802_CF_CFS_Catch_identity,108,8201,L,130,122,Complete,I,A,D,F5,F5076.png,F5033.png,F5078.png,F5033.png,D,1,0.909041653,0.3,0.3,0.5,2017-09-11-16:07:26
8201,10802_CF_CFS_Catch_identity,108,8201,L,131,123,Complete,C,M,S,M3,M3183.png,M3153.png,M3183.png,M3153.png,S,1,0.595822134,0.3,0.3,0.5,2017-09-11-16:07:29
8201,10802_CF_CFS_Catch_identity,108,8201,L,132,124,Complete,I,M,S,M1,M1119.png,M1125.png,M1119.png,M1122.png,S,1,0.590960785,0.3,0.3,0.5,2017-09-11-16:07:31
8201,10802_CF_CFS_Catch_identity,108,8201,L,133,125,Complete,C,M,D,M2,M2198.png,M2142.png,M2141.png,M2201.png,D,1,0.62646901,0.3,0.3,0.5,2017-09-11-16:07:34
8201,10802_CF_CFS_Catch_identity,108,8201,L,134,126,Complete,I,A,D,M1,M1122.png,M1186.png,M1125.png,M1186.png,D,1,1.196458146,0.3,0.3,0.5,2017-09-11-16:07:37
8201,10802_CF_CFS_Catch_identity,108,8201,L,135,127,Complete,C,A,S,M3,M3183.png,M3153.png,M3183.png,M3153.png,S,1,0.647557078,0.3,0.3,0.5,2017-09-11-16:07:39
8201,10802_CF_CFS_Catch_identity,108,8201,L,136,128,Complete,I,A,S,F3,F3062.png,F3079.png,F3062.png,F3112.png,S,1,0.600695556,0.3,0.3,0.5,2017-09-11-16:07:42
8201,10802_CF_CFS_Catch_identity,108,8201,L,137,129,Complete,C,A,S,M4,M4197.png,M4134.png,M4197.png,M4134.png,S,1,0.635831665,0.3,0.3,0.5,2017-09-11-16:07:44
8201,10802_CF_CFS_Catch_identity,108,8201,L,138,130,Complete,C,M,S,M1,M1125.png,M1122.png,M1125.png,M1122.png,S,1,0.597330635,0.3,0.3,0.5,2017-09-11-16:07:47
8201,10802_CF_CFS_Catch_identity,108,8201,L,139,131,Complete,I,A,D,M3,M3183.png,M3153.png,M3013.png,M3153.png,S,0,0.592484731,0.3,0.3,0.5,2017-09-11-16:07:49
8201,10802_CF_CFS_Catch_identity,108,8201,L,140,132,Complete,I,A,D,F3,F3079.png,F3112.png,F3062.png,F3112.png,D,1,1.931843709,0.3,0.3,0.5,2017-09-11-16:07:53
8201,10802_CF_CFS_Catch_identity,108,8201,L,141,133,Complete,C,A,D,F1,F1015.png,F1059.png,F1002.png,F1046.png,D,1,0.753429658,0.3,0.3,0.5,2017-09-11-16:07:56
8201,10802_CF_CFS_Catch_identity,108,8201,L,142,134,Complete,I,M,S,F3,F3062.png,F3079.png,F3062.png,F3112.png,S,1,0.622167324,0.3,0.3,0.5,2017-09-11-16:07:58
8201,10802_CF_CFS_Catch_identity,108,8201,L,143,135,Complete,C,M,D,F2,F2017.png,F2032.png,F2067.png,F2016.png,D,1,0.87238756,0.3,0.3,0.5,2017-09-11-16:08:01
8201,10802_CF_CFS_Catch_identity,108,8201,L,144,136,Complete,C,A,S,M4,M4134.png,M4188.png,M4134.png,M4188.png,S,1,0.688439831,0.3,0.3,0.5,2017-09-11-16:08:04
8201,10802_CF_CFS_Catch_identity,108,8201,L,145,137,Complete,C,A,D,M1,M1125.png,M1122.png,M1186.png,M1119.png,D,1,0.783865915,0.3,0.3,0.5,2017-09-11-16:08:07
8201,10802_CF_CFS_Catch_identity,10802,8201,L,146,9,CatchOnly,NaN,M,NaN,1,F1046.png,F1015.png,F1015.png,F1059.png,1,1,4.885449802,0.3,NaN,0.5,2017-09-11-16:08:13
8201,10802_CF_CFS_Catch_identity,108,8201,L,147,138,Complete,C,M,D,M3,M3153.png,M3187.png,M3013.png,M3183.png,D,1,1.025633816,0.3,0.3,0.5,2017-09-11-16:08:16
8201,10802_CF_CFS_Catch_identity,108,8201,L,148,139,Complete,C,M,S,M3,M3013.png,M3183.png,M3013.png,M3183.png,S,1,0.691718139,0.3,0.3,0.5,2017-09-11-16:08:19
8201,10802_CF_CFS_Catch_identity,108,8201,L,149,140,Complete,C,A,S,F4,F4040.png,F4018.png,F4040.png,F4018.png,S,1,0.619122657,0.3,0.3,0.5,2017-09-11-16:08:21
8201,10802_CF_CFS_Catch_identity,108,8201,L,150,141,Complete,I,A,D,F5,F5078.png,F5076.png,F5068.png,F5076.png,D,1,0.653253426,0.3,0.3,0.5,2017-09-11-16:08:24
8201,10802_CF_CFS_Catch_identity,108,8201,L,151,142,Complete,I,A,S,M2,M2142.png,M2141.png,M2142.png,M2201.png,S,1,1.118082001,0.3,0.3,0.5,2017-09-11-16:08:27
8201,10802_CF_CFS_Catch_identity,108,8201,L,152,143,Complete,C,M,D,M3,M3187.png,M3013.png,M3183.png,M3153.png,D,1,0.700124821,0.3,0.3,0.5,2017-09-11-16:08:29
8201,10802_CF_CFS_Catch_identity,10802,8201,L,153,10,CatchOnly,NaN,A,NaN,3,F3079.png,F3112.png,F3112.png,F3047.png,2,1,5.181147359,0.3,NaN,0.5,2017-09-11-16:08:36
8201,10802_CF_CFS_Catch_identity,108,8201,L,154,144,Complete,I,A,D,M1,M1119.png,M1125.png,M1186.png,M1125.png,D,1,0.829118637,0.3,0.3,0.5,2017-09-11-16:08:39
8201,10802_CF_CFS_Catch_identity,108,8201,L,155,145,Complete,C,A,S,M2,M2141.png,M2201.png,M2141.png,M2201.png,S,1,0.814797021,0.3,0.3,0.5,2017-09-11-16:08:42
8201,10802_CF_CFS_Catch_identity,108,8201,L,156,146,Complete,I,M,S,M2,M2198.png,M2142.png,M2198.png,M2141.png,S,1,0.801252727,0.3,0.3,0.5,2017-09-11-16:08:44
8201,10802_CF_CFS_Catch_identity,10802,8201,L,157,11,CatchOnly,NaN,A,NaN,7,M2198.png,M2142.png,M2142.png,M2141.png,1,0,3.310370465,0.3,NaN,0.5,2017-09-11-16:08:50
8201,10802_CF_CFS_Catch_identity,108,8201,L,158,147,Complete,I,A,S,F4,F4020.png,F4040.png,F4020.png,F4018.png,S,1,0.961665362,0.3,0.3,0.5,2017-09-11-16:08:52
8201,10802_CF_CFS_Catch_identity,108,8201,L,159,148,Complete,C,M,S,F2,F2032.png,F2067.png,F2032.png,F2067.png,S,1,0.718096029,0.3,0.3,0.5,2017-09-11-16:08:55
8201,10802_CF_CFS_Catch_identity,108,8201,L,160,149,Complete,C,A,D,F4,F4018.png,F4064.png,F4020.png,F4040.png,D,1,0.884478636,0.3,0.3,0.5,2017-09-11-16:08:58
8201,10802_CF_CFS_Catch_identity,108,8201,L,161,150,Complete,C,A,S,M3,M3013.png,M3183.png,M3013.png,M3183.png,S,1,0.947900575,0.3,0.3,0.5,2017-09-11-16:09:01
8201,10802_CF_CFS_Catch_identity,108,8201,L,162,151,Complete,I,A,S,M3,M3187.png,M3013.png,M3187.png,M3183.png,S,1,0.792925081,0.3,0.3,0.5,2017-09-11-16:09:03
8201,10802_CF_CFS_Catch_identity,108,8201,L,163,152,Complete,C,M,S,F4,F4064.png,F4020.png,F4064.png,F4020.png,S,1,0.916433511,0.3,0.3,0.5,2017-09-11-16:09:06
8201,10802_CF_CFS_Catch_identity,108,8201,L,164,153,Complete,C,A,S,F5,F5033.png,F5068.png,F5033.png,F5068.png,S,1,0.650909633,0.3,0.3,0.5,2017-09-11-16:09:09
8201,10802_CF_CFS_Catch_identity,10802,8201,L,165,12,CatchOnly,NaN,A,NaN,8,M3187.png,M3013.png,M3013.png,M3183.png,1,1,3.195239195,0.3,NaN,0.5,2017-09-11-16:09:14
8201,10802_CF_CFS_Catch_identity,108,8201,L,166,154,Complete,I,M,D,M3,M3013.png,M3183.png,M3187.png,M3183.png,D,1,1.933764748,0.3,0.3,0.5,2017-09-11-16:09:18
8201,10802_CF_CFS_Catch_identity,108,8201,L,167,155,Complete,I,A,D,M4,M4136.png,M4197.png,M4188.png,M4197.png,D,1,0.883478085,0.3,0.3,0.5,2017-09-11-16:09:20
8201,10802_CF_CFS_Catch_identity,108,8201,L,168,156,Complete,I,A,S,F2,F2067.png,F2016.png,F2067.png,F2017.png,D,0,1.675202447,0.3,0.3,0.5,2017-09-11-16:09:24
8201,10802_CF_CFS_Catch_identity,108,8201,L,169,157,Complete,I,M,S,F3,F3047.png,F3062.png,F3047.png,F3079.png,S,1,0.683181097,0.3,0.3,0.5,2017-09-11-16:09:27
8201,10802_CF_CFS_Catch_identity,108,8201,L,170,158,Complete,I,A,S,F5,F5078.png,F5076.png,F5078.png,F5033.png,S,1,0.666872065,0.3,0.3,0.5,2017-09-11-16:09:29
8201,10802_CF_CFS_Catch_identity,10802,8201,L,171,13,CatchOnly,NaN,M,NaN,3,F3079.png,F3112.png,F3112.png,F3047.png,1,0,2.89053487,0.3,NaN,0.5,2017-09-11-16:09:34
8201,10802_CF_CFS_Catch_identity,108,8201,L,172,159,Complete,C,M,D,F4,F4020.png,F4040.png,F4018.png,F4064.png,D,1,1.113431125,0.3,0.3,0.5,2017-09-11-16:09:37
8201,10802_CF_CFS_Catch_identity,108,8201,L,173,160,Complete,C,A,D,F2,F2017.png,F2032.png,F2067.png,F2016.png,D,1,0.596690125,0.3,0.3,0.5,2017-09-11-16:10:13
8201,10802_CF_CFS_Catch_identity,108,8201,L,174,161,Complete,C,A,D,M2,M2142.png,M2141.png,M2201.png,M2198.png,S,0,0.599759085,0.3,0.3,0.5,2017-09-11-16:10:16
8201,10802_CF_CFS_Catch_identity,10802,8201,L,175,14,CatchOnly,NaN,A,NaN,1,F1046.png,F1015.png,F1015.png,F1059.png,2,1,3.085599225,0.3,NaN,0.5,2017-09-11-16:10:20
8201,10802_CF_CFS_Catch_identity,108,8201,L,176,162,Complete,I,M,D,M3,M3187.png,M3013.png,M3153.png,M3013.png,D,1,1.513202909,0.3,0.3,0.5,2017-09-11-16:10:24
8201,10802_CF_CFS_Catch_identity,108,8201,L,177,163,Complete,C,A,D,F1,F1002.png,F1046.png,F1015.png,F1059.png,D,1,0.591566101,0.3,0.3,0.5,2017-09-11-16:10:26
8201,10802_CF_CFS_Catch_identity,108,8201,L,178,164,Complete,C,M,D,M3,M3013.png,M3183.png,M3153.png,M3187.png,D,1,1.434917777,0.3,0.3,0.5,2017-09-11-16:10:30
8201,10802_CF_CFS_Catch_identity,108,8201,L,179,165,Complete,C,A,D,F5,F5068.png,F5078.png,F5076.png,F5033.png,D,1,0.772297843,0.3,0.3,0.5,2017-09-11-16:10:32
8201,10802_CF_CFS_Catch_identity,108,8201,L,180,166,Complete,I,M,D,F1,F1002.png,F1046.png,F1059.png,F1046.png,D,1,0.896392624,0.3,0.3,0.5,2017-09-11-16:10:35
8201,10802_CF_CFS_Catch_identity,108,8201,L,181,167,Complete,C,M,S,M1,M1119.png,M1125.png,M1119.png,M1125.png,S,1,0.703492529,0.3,0.3,0.5,2017-09-11-16:10:38
8201,10802_CF_CFS_Catch_identity,108,8201,L,182,168,Complete,C,A,S,M5,M5154.png,M5146.png,M5154.png,M5146.png,S,1,0.478376252,0.3,0.3,0.5,2017-09-11-16:10:40
8201,10802_CF_CFS_Catch_identity,108,8201,L,183,169,Complete,C,A,S,F1,F1046.png,F1015.png,F1046.png,F1015.png,S,1,0.6461479,0.3,0.3,0.5,2017-09-11-16:10:43
8201,10802_CF_CFS_Catch_identity,108,8201,L,184,170,Complete,I,M,D,M1,M1119.png,M1125.png,M1186.png,M1125.png,D,1,0.631289056,0.3,0.3,0.5,2017-09-11-16:10:45
8201,10802_CF_CFS_Catch_identity,108,8201,L,185,171,Complete,C,M,S,M2,M2142.png,M2141.png,M2142.png,M2141.png,S,1,0.489064406,0.3,0.3,0.5,2017-09-11-16:10:48
8201,10802_CF_CFS_Catch_identity,108,8201,L,186,172,Complete,C,M,D,M1,M1125.png,M1122.png,M1186.png,M1119.png,D,1,0.71253537,0.3,0.3,0.5,2017-09-11-16:10:50
8201,10802_CF_CFS_Catch_identity,108,8201,L,187,173,Complete,I,A,D,F4,F4040.png,F4018.png,F4020.png,F4018.png,D,1,0.76698412,0.3,0.3,0.5,2017-09-11-16:10:53
8201,10802_CF_CFS_Catch_identity,108,8201,L,188,174,Complete,C,M,D,M3,M3183.png,M3153.png,M3187.png,M3013.png,D,1,0.723415129,0.3,0.3,0.5,2017-09-11-16:10:56
8201,10802_CF_CFS_Catch_identity,108,8201,L,189,175,Complete,I,A,S,F1,F1015.png,F1059.png,F1015.png,F1002.png,S,1,0.71350024,0.3,0.3,0.5,2017-09-11-16:10:58
8201,10802_CF_CFS_Catch_identity,108,8201,L,190,176,Complete,C,M,S,M5,M5178.png,M5152.png,M5178.png,M5152.png,S,1,0.688034527,0.3,0.3,0.5,2017-09-11-16:11:01
8201,10802_CF_CFS_Catch_identity,108,8201,L,191,177,Complete,C,M,S,F2,F2017.png,F2032.png,F2017.png,F2032.png,S,1,1.655451363,0.3,0.3,0.5,2017-09-11-16:11:04
8201,10802_CF_CFS_Catch_identity,108,8201,L,192,178,Complete,I,A,S,M4,M4188.png,M4136.png,M4188.png,M4197.png,S,1,0.800037059,0.3,0.3,0.5,2017-09-11-16:11:07
8201,10802_CF_CFS_Catch_identity,108,8201,L,193,179,Complete,I,M,S,F1,F1059.png,F1002.png,F1059.png,F1046.png,S,1,1.067104582,0.3,0.3,0.5,2017-09-11-16:11:10
8201,10802_CF_CFS_Catch_identity,108,8201,L,194,180,Complete,C,A,D,M1,M1122.png,M1186.png,M1119.png,M1125.png,S,0,1.731513532,0.3,0.3,0.5,2017-09-11-16:11:14
8201,10802_CF_CFS_Catch_identity,108,8201,L,195,181,Complete,C,A,D,F5,F5078.png,F5076.png,F5033.png,F5068.png,D,1,1.201067964,0.3,0.3,0.5,2017-09-11-16:11:17
8201,10802_CF_CFS_Catch_identity,108,8201,L,196,182,Complete,I,M,S,M4,M4136.png,M4197.png,M4136.png,M4134.png,S,1,1.396078357,0.3,0.3,0.5,2017-09-11-16:11:20
8201,10802_CF_CFS_Catch_identity,108,8201,L,197,183,Complete,I,A,D,F1,F1015.png,F1059.png,F1046.png,F1059.png,D,1,1.303070753,0.3,0.3,0.5,2017-09-11-16:11:23
8201,10802_CF_CFS_Catch_identity,108,8201,L,198,184,Complete,C,A,D,F2,F2032.png,F2067.png,F2016.png,F2017.png,D,1,0.613779607,0.3,0.3,0.5,2017-09-11-16:11:26
8201,10802_CF_CFS_Catch_identity,108,8201,L,199,185,Complete,I,A,S,M1,M1186.png,M1119.png,M1186.png,M1125.png,D,0,2.328076954,0.3,0.3,0.5,2017-09-11-16:11:30
8201,10802_CF_CFS_Catch_identity,108,8201,L,200,186,Complete,C,M,D,M4,M4136.png,M4197.png,M4134.png,M4188.png,D,1,0.829626391,0.3,0.3,0.5,2017-09-11-16:11:33
8201,10802_CF_CFS_Catch_identity,108,8201,L,201,187,Complete,C,M,S,M2,M2198.png,M2142.png,M2198.png,M2142.png,S,1,0.871467513,0.3,0.3,0.5,2017-09-11-16:11:36
8201,10802_CF_CFS_Catch_identity,108,8201,L,202,188,Complete,I,M,S,M3,M3153.png,M3187.png,M3153.png,M3013.png,S,1,0.943521367,0.3,0.3,0.5,2017-09-11-16:11:39
8201,10802_CF_CFS_Catch_identity,108,8201,L,203,189,Complete,C,M,D,F4,F4040.png,F4018.png,F4064.png,F4020.png,D,1,0.940536089,0.3,0.3,0.5,2017-09-11-16:11:41
8201,10802_CF_CFS_Catch_identity,108,8201,L,204,190,Complete,C,M,S,F4,F4020.png,F4040.png,F4020.png,F4040.png,S,1,1.169920813,0.3,0.3,0.5,2017-09-11-16:11:45
8201,10802_CF_CFS_Catch_identity,108,8201,L,205,191,Complete,I,A,D,F3,F3047.png,F3062.png,F3112.png,F3062.png,D,1,0.829987362,0.3,0.3,0.5,2017-09-11-16:11:47
8201,10802_CF_CFS_Catch_identity,10802,8201,L,206,15,CatchOnly,NaN,A,NaN,9,M4197.png,M4134.png,M4134.png,M4188.png,1,0,3.010271754,0.3,NaN,0.5,2017-09-11-16:11:52
8201,10802_CF_CFS_Catch_identity,108,8201,L,207,192,Complete,C,M,D,F3,F3079.png,F3112.png,F3047.png,F3062.png,D,1,0.745102453,0.3,0.3,0.5,2017-09-11-16:11:55
8201,10802_CF_CFS_Catch_identity,108,8201,L,208,193,Complete,I,M,D,F3,F3079.png,F3112.png,F3062.png,F3112.png,D,1,0.550262452,0.3,0.3,0.5,2017-09-11-16:11:57
8201,10802_CF_CFS_Catch_identity,108,8201,L,209,194,Complete,I,M,D,M2,M2142.png,M2141.png,M2198.png,M2141.png,D,1,0.67538721,0.3,0.3,0.5,2017-09-11-16:12:00
8201,10802_CF_CFS_Catch_identity,108,8201,L,210,195,Complete,I,A,S,F1,F1059.png,F1002.png,F1059.png,F1046.png,S,1,0.571450918,0.3,0.3,0.5,2017-09-11-16:12:02
8201,10802_CF_CFS_Catch_identity,108,8201,L,211,196,Complete,I,A,D,F1,F1059.png,F1002.png,F1015.png,F1002.png,D,1,0.831597042,0.3,0.3,0.5,2017-09-11-16:12:05
8201,10802_CF_CFS_Catch_identity,108,8201,L,212,197,Complete,C,M,S,F5,F5078.png,F5076.png,F5078.png,F5076.png,D,0,0.705381552,0.3,0.3,0.5,2017-09-11-16:12:08
8201,10802_CF_CFS_Catch_identity,108,8201,L,213,198,Complete,I,M,D,F1,F1015.png,F1059.png,F1046.png,F1059.png,D,1,0.872118628,0.3,0.3,0.5,2017-09-11-16:12:10
8201,10802_CF_CFS_Catch_identity,108,8201,L,214,199,Complete,I,A,D,F2,F2067.png,F2016.png,F2032.png,F2016.png,D,1,0.600306333,0.3,0.3,0.5,2017-09-11-16:12:13
8201,10802_CF_CFS_Catch_identity,108,8201,L,215,200,Complete,I,M,D,M4,M4188.png,M4136.png,M4134.png,M4136.png,D,1,0.610669296,0.3,0.3,0.5,2017-09-11-16:12:44
8201,10802_CF_CFS_Catch_identity,10802,8201,L,216,16,CatchOnly,NaN,M,NaN,7,M2198.png,M2142.png,M2142.png,M2141.png,2,0,2.320474223,0.3,NaN,0.5,2017-09-11-16:12:48
8201,10802_CF_CFS_Catch_identity,108,8201,L,217,201,Complete,C,M,S,M2,M2141.png,M2201.png,M2141.png,M2201.png,S,1,0.946263034,0.3,0.3,0.5,2017-09-11-16:12:51
8201,10802_CF_CFS_Catch_identity,108,8201,L,218,202,Complete,I,A,D,F4,F4020.png,F4040.png,F4064.png,F4040.png,D,1,0.70336124,0.3,0.3,0.5,2017-09-11-16:12:54
8201,10802_CF_CFS_Catch_identity,108,8201,L,219,203,Complete,I,M,D,M5,M5154.png,M5146.png,M5152.png,M5146.png,S,0,0.630125982,0.3,0.3,0.5,2017-09-11-16:12:56
8201,10802_CF_CFS_Catch_identity,108,8201,L,220,204,Complete,I,A,D,M5,M5154.png,M5146.png,M5152.png,M5146.png,S,0,0.751972529,0.3,0.3,0.5,2017-09-11-16:12:59
8201,10802_CF_CFS_Catch_identity,108,8201,L,221,205,Complete,I,M,D,F5,F5078.png,F5076.png,F5068.png,F5076.png,D,1,0.756785586,0.3,0.3,0.5,2017-09-11-16:13:02
8201,10802_CF_CFS_Catch_identity,108,8201,L,222,206,Complete,C,A,S,M3,M3153.png,M3187.png,M3153.png,M3187.png,S,1,0.937466054,0.3,0.3,0.5,2017-09-11-16:13:04
8201,10802_CF_CFS_Catch_identity,108,8201,L,223,207,Complete,C,A,S,M2,M2198.png,M2142.png,M2198.png,M2142.png,S,1,0.798946278,0.3,0.3,0.5,2017-09-11-16:13:07
8201,10802_CF_CFS_Catch_identity,108,8201,L,224,208,Complete,I,A,D,M4,M4188.png,M4136.png,M4134.png,M4136.png,D,1,0.610040909,0.3,0.3,0.5,2017-09-11-16:13:10
8201,10802_CF_CFS_Catch_identity,108,8201,L,225,209,Complete,C,A,D,M3,M3153.png,M3187.png,M3013.png,M3183.png,D,1,0.64485867,0.3,0.3,0.5,2017-09-11-16:13:12
8201,10802_CF_CFS_Catch_identity,108,8201,L,226,210,Complete,I,M,D,M5,M5178.png,M5152.png,M5146.png,M5152.png,D,1,0.733937681,0.3,0.3,0.5,2017-09-11-16:13:15
8201,10802_CF_CFS_Catch_identity,108,8201,L,227,211,Complete,I,M,D,M3,M3153.png,M3187.png,M3183.png,M3187.png,D,1,0.811832076,0.3,0.3,0.5,2017-09-11-16:13:18
8201,10802_CF_CFS_Catch_identity,108,8201,L,228,212,Complete,I,M,S,F1,F1046.png,F1015.png,F1046.png,F1059.png,S,1,0.702190737,0.3,0.3,0.5,2017-09-11-16:13:20
8201,10802_CF_CFS_Catch_identity,108,8201,L,229,213,Complete,C,A,S,F1,F1059.png,F1002.png,F1059.png,F1002.png,S,1,0.772956388,0.3,0.3,0.5,2017-09-11-16:13:23
8201,10802_CF_CFS_Catch_identity,108,8201,L,230,214,Complete,C,M,D,F3,F3047.png,F3062.png,F3079.png,F3112.png,D,1,0.585019995,0.3,0.3,0.5,2017-09-11-16:13:25
8201,10802_CF_CFS_Catch_identity,108,8201,L,231,215,Complete,I,M,D,F5,F5076.png,F5033.png,F5078.png,F5033.png,D,1,1.332803104,0.3,0.3,0.5,2017-09-11-16:13:29
8201,10802_CF_CFS_Catch_identity,108,8201,L,232,216,Complete,I,A,D,M2,M2142.png,M2141.png,M2198.png,M2141.png,D,1,0.770566112,0.3,0.3,0.5,2017-09-11-16:13:31
8201,10802_CF_CFS_Catch_identity,108,8201,L,233,217,Complete,I,M,D,F2,F2017.png,F2032.png,F2016.png,F2032.png,D,1,0.630670982,0.3,0.3,0.5,2017-09-11-16:13:34
8201,10802_CF_CFS_Catch_identity,108,8201,L,234,218,Complete,I,M,S,F2,F2017.png,F2032.png,F2017.png,F2067.png,S,1,0.76040761,0.3,0.3,0.5,2017-09-11-16:13:37
8201,10802_CF_CFS_Catch_identity,108,8201,L,235,219,Complete,I,M,D,F3,F3062.png,F3079.png,F3047.png,F3079.png,D,1,1.684839167,0.3,0.3,0.5,2017-09-11-16:13:40
8201,10802_CF_CFS_Catch_identity,108,8201,L,236,220,Complete,C,A,D,M1,M1119.png,M1125.png,M1122.png,M1186.png,D,1,0.620414282,0.3,0.3,0.5,2017-09-11-16:13:43
8201,10802_CF_CFS_Catch_identity,108,8201,L,237,221,Complete,I,M,S,F5,F5068.png,F5078.png,F5068.png,F5076.png,S,1,0.766618701,0.3,0.3,0.5,2017-09-11-16:13:45
8201,10802_CF_CFS_Catch_identity,108,8201,L,238,222,Complete,C,M,S,M3,M3153.png,M3187.png,M3153.png,M3187.png,S,1,0.611044099,0.3,0.3,0.5,2017-09-11-16:13:48
8201,10802_CF_CFS_Catch_identity,108,8201,L,239,223,Complete,C,A,S,F2,F2067.png,F2016.png,F2067.png,F2016.png,S,1,0.613483987,0.3,0.3,0.5,2017-09-11-16:13:50
8201,10802_CF_CFS_Catch_identity,10802,8201,L,240,17,CatchOnly,NaN,M,NaN,5,F5068.png,F5078.png,F5078.png,F5076.png,1,0,3.679685562,0.3,NaN,0.5,2017-09-11-16:13:56
8201,10802_CF_CFS_Catch_identity,108,8201,L,241,224,Complete,C,M,S,M4,M4188.png,M4136.png,M4188.png,M4136.png,S,1,0.542428044,0.3,0.3,0.5,2017-09-11-16:13:58
8201,10802_CF_CFS_Catch_identity,108,8201,L,242,225,Complete,I,M,S,M2,M2201.png,M2198.png,M2201.png,M2142.png,S,1,0.523977188,0.3,0.3,0.5,2017-09-11-16:14:01
8201,10802_CF_CFS_Catch_identity,108,8201,L,243,226,Complete,I,A,D,M3,M3187.png,M3013.png,M3153.png,M3013.png,D,1,0.58620042,0.3,0.3,0.5,2017-09-11-16:14:03
8201,10802_CF_CFS_Catch_identity,108,8201,L,244,227,Complete,I,A,D,M4,M4134.png,M4188.png,M4197.png,M4188.png,D,1,0.629581031,0.3,0.3,0.5,2017-09-11-16:14:06
8201,10802_CF_CFS_Catch_identity,108,8201,L,245,228,Complete,I,A,D,M2,M2198.png,M2142.png,M2201.png,M2142.png,D,1,0.615395299,0.3,0.3,0.5,2017-09-11-16:14:08
8201,10802_CF_CFS_Catch_identity,108,8201,L,246,229,Complete,C,M,S,M3,M3187.png,M3013.png,M3187.png,M3013.png,S,1,0.705861347,0.3,0.3,0.5,2017-09-11-16:14:11
8201,10802_CF_CFS_Catch_identity,108,8201,L,247,230,Complete,C,A,D,F3,F3079.png,F3112.png,F3047.png,F3062.png,D,1,0.512677363,0.3,0.3,0.5,2017-09-11-16:14:13
8201,10802_CF_CFS_Catch_identity,108,8201,L,248,231,Complete,C,A,D,F5,F5033.png,F5068.png,F5078.png,F5076.png,D,1,0.59114936,0.3,0.3,0.5,2017-09-11-16:14:16
8201,10802_CF_CFS_Catch_identity,108,8201,L,249,232,Complete,I,A,D,M2,M2201.png,M2198.png,M2141.png,M2198.png,D,1,0.72257754,0.3,0.3,0.5,2017-09-11-16:14:18
8201,10802_CF_CFS_Catch_identity,108,8201,L,250,233,Complete,I,M,D,F3,F3112.png,F3047.png,F3079.png,F3047.png,S,0,1.880671068,0.3,0.3,0.5,2017-09-11-16:14:22
8201,10802_CF_CFS_Catch_identity,108,8201,L,251,234,Complete,C,M,S,M1,M1186.png,M1119.png,M1186.png,M1119.png,S,1,0.68831954,0.3,0.3,0.5,2017-09-11-16:14:25
8201,10802_CF_CFS_Catch_identity,108,8201,L,252,235,Complete,C,A,D,F3,F3062.png,F3079.png,F3112.png,F3047.png,D,1,0.583750952,0.3,0.3,0.5,2017-09-11-16:14:27
8201,10802_CF_CFS_Catch_identity,108,8201,L,253,236,Complete,I,M,D,M4,M4197.png,M4134.png,M4136.png,M4134.png,D,1,0.723510345,0.3,0.3,0.5,2017-09-11-16:14:30
8201,10802_CF_CFS_Catch_identity,108,8201,L,254,237,Complete,C,A,S,F4,F4064.png,F4020.png,F4064.png,F4020.png,S,1,0.54564672,0.3,0.3,0.5,2017-09-11-16:14:32
8201,10802_CF_CFS_Catch_identity,108,8201,L,255,238,Complete,I,M,D,M1,M1125.png,M1122.png,M1119.png,M1122.png,D,1,0.90282714,0.3,0.3,0.5,2017-09-11-16:14:35
8201,10802_CF_CFS_Catch_identity,108,8201,L,256,239,Complete,C,M,D,F1,F1059.png,F1002.png,F1046.png,F1015.png,D,1,0.933577395,0.3,0.3,0.5,2017-09-11-16:14:38
8201,10802_CF_CFS_Catch_identity,108,8201,L,257,240,Complete,I,A,S,F4,F4018.png,F4064.png,F4018.png,F4020.png,D,0,0.542020345,0.3,0.3,0.5,2017-09-11-16:15:00
8201,10802_CF_CFS_Catch_identity,108,8201,L,258,241,Complete,I,A,S,F4,F4064.png,F4020.png,F4064.png,F4040.png,D,0,1.011469737,0.3,0.3,0.5,2017-09-11-16:15:03
8201,10802_CF_CFS_Catch_identity,108,8201,L,259,242,Complete,I,M,D,F4,F4018.png,F4064.png,F4040.png,F4064.png,D,1,0.709805532,0.3,0.3,0.5,2017-09-11-16:15:05
8201,10802_CF_CFS_Catch_identity,108,8201,L,260,243,Complete,I,A,S,M2,M2201.png,M2198.png,M2201.png,M2142.png,S,1,0.444679382,0.3,0.3,0.5,2017-09-11-16:15:07
8201,10802_CF_CFS_Catch_identity,108,8201,L,261,244,Complete,C,M,S,F3,F3079.png,F3112.png,F3079.png,F3112.png,S,1,0.749810811,0.3,0.3,0.5,2017-09-11-16:15:10
8201,10802_CF_CFS_Catch_identity,108,8201,L,262,245,Complete,C,M,D,M4,M4134.png,M4188.png,M4136.png,M4197.png,D,1,1.00292722,0.3,0.3,0.5,2017-09-11-16:15:13
8201,10802_CF_CFS_Catch_identity,108,8201,L,263,246,Complete,I,A,D,M3,M3013.png,M3183.png,M3187.png,M3183.png,D,1,1.709565488,0.3,0.3,0.5,2017-09-11-16:15:17
8201,10802_CF_CFS_Catch_identity,108,8201,L,264,247,Complete,C,M,D,M1,M1186.png,M1119.png,M1125.png,M1122.png,D,1,0.620222335,0.3,0.3,0.5,2017-09-11-16:15:19
8201,10802_CF_CFS_Catch_identity,108,8201,L,265,248,Complete,I,M,S,F4,F4040.png,F4018.png,F4040.png,F4064.png,S,1,0.678376252,0.3,0.3,0.5,2017-09-11-16:15:22
8201,10802_CF_CFS_Catch_identity,10802,8201,L,266,18,CatchOnly,NaN,M,NaN,2,F2017.png,F2032.png,F2032.png,F2067.png,1,0,2.925590427,0.3,NaN,0.5,2017-09-11-16:15:26
8201,10802_CF_CFS_Catch_identity,10802,8201,L,267,19,CatchOnly,NaN,M,NaN,6,M1125.png,M1122.png,M1122.png,M1186.png,1,0,4.530904736,0.3,NaN,0.5,2017-09-11-16:15:33
8201,10802_CF_CFS_Catch_identity,108,8201,L,268,249,Complete,I,M,S,F5,F5078.png,F5076.png,F5078.png,F5033.png,S,1,0.918889823,0.3,0.3,0.5,2017-09-11-16:15:36
8201,10802_CF_CFS_Catch_identity,108,8201,L,269,250,Complete,C,M,S,F2,F2016.png,F2017.png,F2016.png,F2017.png,S,1,0.77290267,0.3,0.3,0.5,2017-09-11-16:15:38
8201,10802_CF_CFS_Catch_identity,108,8201,L,270,251,Complete,C,M,S,F5,F5076.png,F5033.png,F5076.png,F5033.png,S,1,0.561070359,0.3,0.3,0.5,2017-09-11-16:15:41
8201,10802_CF_CFS_Catch_identity,108,8201,L,271,252,Complete,I,M,D,F5,F5033.png,F5068.png,F5076.png,F5068.png,D,1,0.693515123,0.3,0.3,0.5,2017-09-11-16:15:43
8201,10802_CF_CFS_Catch_identity,108,8201,L,272,253,Complete,C,A,D,F4,F4064.png,F4020.png,F4040.png,F4018.png,D,1,0.660585847,0.3,0.3,0.5,2017-09-11-16:15:46
8201,10802_CF_CFS_Catch_identity,10802,8201,L,273,20,CatchOnly,NaN,A,NaN,6,M1125.png,M1122.png,M1122.png,M1186.png,1,0,3.575864576,0.3,NaN,0.5,2017-09-11-16:15:51
8201,10802_CF_CFS_Catch_identity,108,8201,L,274,254,Complete,I,M,D,F4,F4020.png,F4040.png,F4064.png,F4040.png,D,1,0.815637836,0.3,0.3,0.5,2017-09-11-16:15:54
8201,10802_CF_CFS_Catch_identity,108,8201,L,275,255,Complete,I,A,D,M2,M2141.png,M2201.png,M2142.png,M2201.png,S,0,3.249828774,0.3,0.3,0.5,2017-09-11-16:15:59
8201,10802_CF_CFS_Catch_identity,108,8201,L,276,256,Complete,I,M,S,F2,F2067.png,F2016.png,F2067.png,F2017.png,S,1,0.682687029,0.3,0.3,0.5,2017-09-11-16:16:02
8201,10802_CF_CFS_Catch_identity,108,8201,L,277,257,Complete,C,A,D,F1,F1046.png,F1015.png,F1059.png,F1002.png,D,1,0.706481327,0.3,0.3,0.5,2017-09-11-16:16:04
8201,10802_CF_CFS_Catch_identity,108,8201,L,278,258,Complete,C,A,S,M1,M1125.png,M1122.png,M1125.png,M1122.png,S,1,0.67326347,0.3,0.3,0.5,2017-09-11-16:16:07
8201,10802_CF_CFS_Catch_identity,108,8201,L,279,259,Complete,I,A,D,F2,F2032.png,F2067.png,F2017.png,F2067.png,D,1,0.681409432,0.3,0.3,0.5,2017-09-11-16:16:09
8201,10802_CF_CFS_Catch_identity,108,8201,L,280,260,Complete,I,A,S,M1,M1122.png,M1186.png,M1122.png,M1119.png,S,1,0.729178,0.3,0.3,0.5,2017-09-11-16:16:12
8201,10802_CF_CFS_Catch_identity,108,8201,L,281,261,Complete,C,M,S,F5,F5068.png,F5078.png,F5068.png,F5078.png,S,1,0.718929855,0.3,0.3,0.5,2017-09-11-16:16:15
8201,10802_CF_CFS_Catch_identity,108,8201,L,282,262,Complete,I,M,S,F5,F5033.png,F5068.png,F5033.png,F5078.png,S,1,0.965053697,0.3,0.3,0.5,2017-09-11-16:16:18
8201,10802_CF_CFS_Catch_identity,108,8201,L,283,263,Complete,I,M,D,F5,F5068.png,F5078.png,F5033.png,F5078.png,D,1,1.473328675,0.3,0.3,0.5,2017-09-11-16:16:21
8201,10802_CF_CFS_Catch_identity,108,8201,L,284,264,Complete,C,M,D,M1,M1122.png,M1186.png,M1119.png,M1125.png,S,0,0.857415317,0.3,0.3,0.5,2017-09-11-16:16:24
8201,10802_CF_CFS_Catch_identity,108,8201,L,285,265,Complete,I,M,S,M5,M5146.png,M5178.png,M5146.png,M5152.png,S,1,0.706215133,0.3,0.3,0.5,2017-09-11-16:16:26
8201,10802_CF_CFS_Catch_identity,108,8201,L,286,266,Complete,C,A,D,M4,M4136.png,M4197.png,M4134.png,M4188.png,S,0,0.744967987,0.3,0.3,0.5,2017-09-11-16:16:29
8201,10802_CF_CFS_Catch_identity,108,8201,L,287,267,Complete,C,A,D,M5,M5178.png,M5152.png,M5154.png,M5146.png,D,1,0.446072968,0.3,0.3,0.5,2017-09-11-16:16:31
8201,10802_CF_CFS_Catch_identity,108,8201,L,288,268,Complete,C,A,D,M2,M2141.png,M2201.png,M2198.png,M2142.png,D,1,0.599250989,0.3,0.3,0.5,2017-09-11-16:16:34
8201,10802_CF_CFS_Catch_identity,108,8201,L,289,269,Complete,C,A,D,M3,M3183.png,M3153.png,M3187.png,M3013.png,D,1,0.842333683,0.3,0.3,0.5,2017-09-11-16:16:37
8201,10802_CF_CFS_Catch_identity,108,8201,L,290,270,Complete,C,M,D,F2,F2016.png,F2017.png,F2032.png,F2067.png,D,1,0.659804909,0.3,0.3,0.5,2017-09-11-16:16:39
8201,10802_CF_CFS_Catch_identity,108,8201,L,291,271,Complete,I,A,S,F2,F2016.png,F2017.png,F2016.png,F2032.png,S,1,0.588634834,0.3,0.3,0.5,2017-09-11-16:16:42
8201,10802_CF_CFS_Catch_identity,108,8201,L,292,272,Complete,C,A,D,M5,M5146.png,M5178.png,M5152.png,M5154.png,D,1,0.632076886,0.3,0.3,0.5,2017-09-11-16:16:44
8201,10802_CF_CFS_Catch_identity,108,8201,L,293,273,Complete,I,A,S,M5,M5154.png,M5146.png,M5154.png,M5178.png,S,1,0.913860526,0.3,0.3,0.5,2017-09-11-16:16:47
8201,10802_CF_CFS_Catch_identity,108,8201,L,294,274,Complete,I,A,S,F1,F1002.png,F1046.png,F1002.png,F1015.png,S,1,0.728323646,0.3,0.3,0.5,2017-09-11-16:16:50
8201,10802_CF_CFS_Catch_identity,108,8201,L,295,275,Complete,C,A,S,M5,M5178.png,M5152.png,M5178.png,M5152.png,S,1,0.910025341,0.3,0.3,0.5,2017-09-11-16:16:53
8201,10802_CF_CFS_Catch_identity,108,8201,L,296,276,Complete,C,M,D,F2,F2032.png,F2067.png,F2016.png,F2017.png,D,1,0.460860107,0.3,0.3,0.5,2017-09-11-16:16:55
8201,10802_CF_CFS_Catch_identity,108,8201,L,297,277,Complete,C,M,S,F1,F1002.png,F1046.png,F1002.png,F1046.png,S,1,1.045316812,0.3,0.3,0.5,2017-09-11-16:16:58
8201,10802_CF_CFS_Catch_identity,108,8201,L,298,278,Complete,I,M,D,M2,M2198.png,M2142.png,M2201.png,M2142.png,D,1,0.654328077,0.3,0.3,0.5,2017-09-11-16:17:00
8201,10802_CF_CFS_Catch_identity,108,8201,L,299,279,Complete,I,M,D,M1,M1122.png,M1186.png,M1125.png,M1186.png,D,1,1.095074995,0.3,0.3,0.5,2017-09-11-16:17:03
8201,10802_CF_CFS_Catch_identity,108,8201,L,300,280,Complete,C,A,S,M4,M4188.png,M4136.png,M4188.png,M4136.png,S,1,0.540121742,0.3,0.3,0.5,2017-09-11-16:17:32
8201,10802_CF_CFS_Catch_identity,108,8201,L,301,281,Complete,C,A,D,F2,F2067.png,F2016.png,F2017.png,F2032.png,D,1,0.601608907,0.3,0.3,0.5,2017-09-11-16:17:34
8201,10802_CF_CFS_Catch_identity,108,8201,L,302,282,Complete,C,A,D,F5,F5076.png,F5033.png,F5068.png,F5078.png,D,1,0.572397654,0.3,0.3,0.5,2017-09-11-16:17:37
8201,10802_CF_CFS_Catch_identity,108,8201,L,303,283,Complete,I,A,S,M4,M4136.png,M4197.png,M4136.png,M4134.png,S,1,0.776476109,0.3,0.3,0.5,2017-09-11-16:17:40
8201,10802_CF_CFS_Catch_identity,108,8201,L,304,284,Complete,C,A,S,F1,F1015.png,F1059.png,F1015.png,F1059.png,S,1,0.556326075,0.3,0.3,0.5,2017-09-11-16:17:42
8201,10802_CF_CFS_Catch_identity,108,8201,L,305,285,Complete,C,M,D,F4,F4064.png,F4020.png,F4040.png,F4018.png,D,1,0.561096998,0.3,0.3,0.5,2017-09-11-16:17:45
8201,10802_CF_CFS_Catch_identity,108,8201,L,306,286,Complete,C,A,S,M5,M5152.png,M5154.png,M5152.png,M5154.png,S,1,0.813499042,0.3,0.3,0.5,2017-09-11-16:17:47
8201,10802_CF_CFS_Catch_identity,108,8201,L,307,287,Complete,C,A,S,F5,F5076.png,F5033.png,F5076.png,F5033.png,S,1,0.648044792,0.3,0.3,0.5,2017-09-11-16:17:50
8201,10802_CF_CFS_Catch_identity,108,8201,L,308,288,Complete,C,M,D,M2,M2141.png,M2201.png,M2198.png,M2142.png,D,1,0.625192781,0.3,0.3,0.5,2017-09-11-16:17:52
8201,10802_CF_CFS_Catch_identity,108,8201,L,309,289,Complete,C,M,S,F3,F3062.png,F3079.png,F3062.png,F3079.png,S,1,0.707237679,0.3,0.3,0.5,2017-09-11-16:17:55
8201,10802_CF_CFS_Catch_identity,108,8201,L,310,290,Complete,I,M,S,F3,F3112.png,F3047.png,F3112.png,F3062.png,S,1,0.554038738,0.3,0.3,0.5,2017-09-11-16:17:57
8201,10802_CF_CFS_Catch_identity,108,8201,L,311,291,Complete,C,A,S,F5,F5068.png,F5078.png,F5068.png,F5078.png,S,1,0.654863301,0.3,0.3,0.5,2017-09-11-16:18:00
8201,10802_CF_CFS_Catch_identity,108,8201,L,312,292,Complete,I,M,S,F5,F5076.png,F5033.png,F5076.png,F5068.png,S,1,0.6316817,0.3,0.3,0.5,2017-09-11-16:18:03
8201,10802_CF_CFS_Catch_identity,108,8201,L,313,293,Complete,C,A,S,F3,F3079.png,F3112.png,F3079.png,F3112.png,S,1,0.505572913,0.3,0.3,0.5,2017-09-11-16:18:05
8201,10802_CF_CFS_Catch_identity,108,8201,L,314,294,Complete,I,M,S,F1,F1015.png,F1059.png,F1015.png,F1002.png,D,0,0.752295179,0.3,0.3,0.5,2017-09-11-16:18:08
8201,10802_CF_CFS_Catch_identity,108,8201,L,315,295,Complete,I,M,D,M5,M5146.png,M5178.png,M5154.png,M5178.png,D,1,1.061089349,0.3,0.3,0.5,2017-09-11-16:18:11
8201,10802_CF_CFS_Catch_identity,108,8201,L,316,296,Complete,C,M,D,M2,M2142.png,M2141.png,M2201.png,M2198.png,S,0,0.965439302,0.3,0.3,0.5,2017-09-11-16:18:13
8201,10802_CF_CFS_Catch_identity,108,8201,L,317,297,Complete,C,M,D,F5,F5033.png,F5068.png,F5078.png,F5076.png,D,1,0.593837944,0.3,0.3,0.5,2017-09-11-16:18:16
8201,10802_CF_CFS_Catch_identity,108,8201,L,318,298,Complete,I,A,D,M5,M5152.png,M5154.png,M5178.png,M5154.png,S,0,0.645043432,0.3,0.3,0.5,2017-09-11-16:18:19
8201,10802_CF_CFS_Catch_identity,108,8201,L,319,299,Complete,C,A,S,M3,M3187.png,M3013.png,M3187.png,M3013.png,S,1,0.678158301,0.3,0.3,0.5,2017-09-11-16:18:21
8201,10802_CF_CFS_Catch_identity,108,8201,L,320,300,Complete,I,M,S,F2,F2016.png,F2017.png,F2016.png,F2032.png,D,0,0.629912088,0.3,0.3,0.5,2017-09-11-16:18:24
8201,10802_CF_CFS_Catch_identity,108,8201,L,321,301,Complete,I,M,S,M2,M2142.png,M2141.png,M2142.png,M2201.png,S,1,0.799726043,0.3,0.3,0.5,2017-09-11-16:18:26
8201,10802_CF_CFS_Catch_identity,108,8201,L,322,302,Complete,C,M,S,M2,M2201.png,M2198.png,M2201.png,M2198.png,S,1,0.530797212,0.3,0.3,0.5,2017-09-11-16:18:29
8201,10802_CF_CFS_Catch_identity,108,8201,L,323,303,Complete,C,M,S,M1,M1122.png,M1186.png,M1122.png,M1186.png,S,1,0.952573349,0.3,0.3,0.5,2017-09-11-16:18:32
8201,10802_CF_CFS_Catch_identity,108,8201,L,324,304,Complete,C,M,D,M5,M5178.png,M5152.png,M5154.png,M5146.png,D,1,0.493450456,0.3,0.3,0.5,2017-09-11-16:18:34
8201,10802_CF_CFS_Catch_identity,108,8201,L,325,305,Complete,C,M,D,M1,M1119.png,M1125.png,M1122.png,M1186.png,D,1,0.700843683,0.3,0.3,0.5,2017-09-11-16:18:37
8201,10802_CF_CFS_Catch_identity,108,8201,L,326,306,Complete,C,M,D,M5,M5146.png,M5178.png,M5152.png,M5154.png,D,1,0.595956062,0.3,0.3,0.5,2017-09-11-16:18:39
8201,10802_CF_CFS_Catch_identity,108,8201,L,327,307,Complete,I,A,D,M4,M4197.png,M4134.png,M4136.png,M4134.png,D,1,0.631153075,0.3,0.3,0.5,2017-09-11-16:18:42
8201,10802_CF_CFS_Catch_identity,108,8201,L,328,308,Complete,C,A,S,F3,F3062.png,F3079.png,F3062.png,F3079.png,S,1,0.880910232,0.3,0.3,0.5,2017-09-11-16:18:45
8201,10802_CF_CFS_Catch_identity,108,8201,L,329,309,Complete,I,A,D,F5,F5068.png,F5078.png,F5033.png,F5078.png,D,1,3.168442715,0.3,0.3,0.5,2017-09-11-16:18:50
8201,10802_CF_CFS_Catch_identity,108,8201,L,330,310,Complete,C,A,S,F2,F2032.png,F2067.png,F2032.png,F2067.png,S,1,0.908203233,0.3,0.3,0.5,2017-09-11-16:18:52
8201,10802_CF_CFS_Catch_identity,108,8201,L,331,311,Complete,C,M,D,M4,M4197.png,M4134.png,M4188.png,M4136.png,D,1,0.531064286,0.3,0.3,0.5,2017-09-11-16:18:55
8201,10802_CF_CFS_Catch_identity,108,8201,L,332,312,Complete,I,A,S,F3,F3079.png,F3112.png,F3079.png,F3047.png,D,0,0.792800489,0.3,0.3,0.5,2017-09-11-16:18:58
8201,10802_CF_CFS_Catch_identity,108,8201,L,333,313,Complete,I,M,D,F4,F4064.png,F4020.png,F4018.png,F4020.png,S,0,0.732287823,0.3,0.3,0.5,2017-09-11-16:19:00
8201,10802_CF_CFS_Catch_identity,108,8201,L,334,314,Complete,C,M,D,F1,F1015.png,F1059.png,F1002.png,F1046.png,D,1,1.449950434,0.3,0.3,0.5,2017-09-11-16:19:04
8201,10802_CF_CFS_Catch_identity,108,8201,L,335,315,Complete,C,A,S,F3,F3047.png,F3062.png,F3047.png,F3062.png,S,1,0.802993597,0.3,0.3,0.5,2017-09-11-16:19:06
8201,10802_CF_CFS_Catch_identity,108,8201,L,336,316,Complete,I,A,S,F3,F3112.png,F3047.png,F3112.png,F3062.png,S,1,0.773778971,0.3,0.3,0.5,2017-09-11-16:19:09
8201,10802_CF_CFS_Catch_identity,108,8201,L,337,317,Complete,I,A,D,F4,F4064.png,F4020.png,F4018.png,F4020.png,S,0,1.24986949,0.3,0.3,0.5,2017-09-11-16:19:12
8201,10802_CF_CFS_Catch_identity,108,8201,L,338,318,Complete,C,A,D,M5,M5152.png,M5154.png,M5146.png,M5178.png,D,1,0.690891157,0.3,0.3,0.5,2017-09-11-16:19:15
8201,10802_CF_CFS_Catch_identity,108,8201,L,339,319,Complete,C,M,D,F4,F4018.png,F4064.png,F4020.png,F4040.png,D,1,0.74634515,0.3,0.3,0.5,2017-09-11-16:19:17
8201,10802_CF_CFS_Catch_identity,108,8201,L,340,320,Complete,I,A,S,M3,M3153.png,M3187.png,M3153.png,M3013.png,S,1,2.375294315,0.3,0.3,0.5,2017-09-11-16:19:22
8201,10802_CF_CFS_mono_identity,108,8201,L,1,1,Complete,I,M,S,F2,F2016.png,F2017.png,F2016.png,F2067.png,S,1,1.413106251,0.3,0.3,0.5,2017-09-11-16:21:36
8201,10802_CF_CFS_mono_identity,108,8201,L,2,2,Complete,C,M,D,M3,M3187.png,M3153.png,M3183.png,M3013.png,D,1,1.549986434,0.3,0.3,0.5,2017-09-11-16:21:39
8201,10802_CF_CFS_mono_identity,108,8201,L,3,3,Complete,I,A,D,F1,F1002.png,F1059.png,F1015.png,F1059.png,D,1,0.625673017,0.3,0.3,0.5,2017-09-11-16:21:42
8201,10802_CF_CFS_mono_identity,108,8201,L,4,4,Complete,I,A,D,F3,F3062.png,F3047.png,F3079.png,F3047.png,D,1,0.570774386,0.3,0.3,0.5,2017-09-11-16:21:44
8201,10802_CF_CFS_mono_identity,108,8201,L,5,5,Complete,I,A,D,M2,M2142.png,M2201.png,M2141.png,M2201.png,D,1,0.766286471,0.3,0.3,0.5,2017-09-11-16:21:47
8201,10802_CF_CFS_mono_identity,108,8201,L,6,6,Complete,C,A,D,F3,F3079.png,F3062.png,F3047.png,F3112.png,D,1,0.986008815,0.3,0.3,0.5,2017-09-11-16:21:50
8201,10802_CF_CFS_mono_identity,108,8201,L,7,7,Complete,I,A,D,M2,M2141.png,M2142.png,M2198.png,M2142.png,D,1,0.637499316,0.3,0.3,0.5,2017-09-11-16:21:53
8201,10802_CF_CFS_mono_identity,108,8201,L,8,8,Complete,I,M,S,M3,M3183.png,M3013.png,M3183.png,M3187.png,S,1,0.606908456,0.3,0.3,0.5,2017-09-11-16:21:55
8201,10802_CF_CFS_mono_identity,108,8201,L,9,9,Complete,C,M,S,F2,F2016.png,F2017.png,F2016.png,F2017.png,S,1,0.697658099,0.3,0.3,0.5,2017-09-11-16:21:58
8201,10802_CF_CFS_mono_identity,108,8201,L,10,10,Complete,I,A,D,M4,M4188.png,M4197.png,M4134.png,M4197.png,D,1,0.640890729,0.3,0.3,0.5,2017-09-11-16:22:00
8201,10802_CF_CFS_mono_identity,108,8201,L,11,11,Complete,C,M,S,F2,F2032.png,F2016.png,F2032.png,F2016.png,S,1,0.754288901,0.3,0.3,0.5,2017-09-11-16:22:03
8201,10802_CF_CFS_mono_identity,108,8201,L,12,12,Complete,I,A,D,M3,M3183.png,M3013.png,M3153.png,M3013.png,D,1,0.591022813,0.3,0.3,0.5,2017-09-11-16:22:05
8201,10802_CF_CFS_mono_identity,108,8201,L,13,13,Complete,C,M,D,F1,F1002.png,F1059.png,F1046.png,F1015.png,S,0,0.938507762,0.3,0.3,0.5,2017-09-11-16:22:08
8201,10802_CF_CFS_mono_identity,108,8201,L,14,14,Complete,C,A,S,F2,F2067.png,F2032.png,F2067.png,F2032.png,S,1,0.687996549,0.3,0.3,0.5,2017-09-11-16:22:11
8201,10802_CF_CFS_mono_identity,108,8201,L,15,15,Complete,C,A,D,M2,M2141.png,M2142.png,M2201.png,M2198.png,D,1,0.735392024,0.3,0.3,0.5,2017-09-11-16:22:14
8201,10802_CF_CFS_mono_identity,108,8201,L,16,16,Complete,I,A,S,F1,F1059.png,F1046.png,F1059.png,F1015.png,D,0,1.060873793,0.3,0.3,0.5,2017-09-11-16:22:17
8201,10802_CF_CFS_mono_identity,108,8201,L,17,17,Complete,C,A,S,M2,M2142.png,M2201.png,M2142.png,M2201.png,S,1,0.80518303,0.3,0.3,0.5,2017-09-11-16:22:19
8201,10802_CF_CFS_mono_identity,108,8201,L,18,18,Complete,I,M,S,F5,F5078.png,F5033.png,F5078.png,F5068.png,S,1,0.68002919,0.3,0.3,0.5,2017-09-11-16:22:22
8201,10802_CF_CFS_mono_identity,108,8201,L,19,19,Complete,I,A,S,M3,M3153.png,M3183.png,M3153.png,M3013.png,S,1,0.743819382,0.3,0.3,0.5,2017-09-11-16:22:24
8201,10802_CF_CFS_mono_identity,108,8201,L,20,20,Complete,I,M,S,F5,F5076.png,F5078.png,F5076.png,F5033.png,S,1,0.65285648,0.3,0.3,0.5,2017-09-11-16:22:27
8201,10802_CF_CFS_mono_identity,108,8201,L,21,21,Complete,C,M,S,F1,F1015.png,F1002.png,F1015.png,F1002.png,S,1,0.653747787,0.3,0.3,0.5,2017-09-11-16:22:30
8201,10802_CF_CFS_mono_identity,108,8201,L,22,22,Complete,C,A,S,F2,F2032.png,F2016.png,F2032.png,F2016.png,S,1,0.782507228,0.3,0.3,0.5,2017-09-11-16:22:32
8201,10802_CF_CFS_mono_identity,108,8201,L,23,23,Complete,I,M,D,M2,M2201.png,M2198.png,M2142.png,M2198.png,S,0,0.578262486,0.3,0.3,0.5,2017-09-11-16:22:35
8201,10802_CF_CFS_mono_identity,108,8201,L,24,24,Complete,I,M,D,F4,F4020.png,F4064.png,F4040.png,F4064.png,D,1,0.750095824,0.3,0.3,0.5,2017-09-11-16:22:37
8201,10802_CF_CFS_mono_identity,108,8201,L,25,25,Complete,C,A,S,M2,M2201.png,M2198.png,M2201.png,M2198.png,D,0,0.995199368,0.3,0.3,0.5,2017-09-11-16:22:40
8201,10802_CF_CFS_mono_identity,108,8201,L,26,26,Complete,I,A,D,M1,M1186.png,M1125.png,M1122.png,M1125.png,D,1,0.646290919,0.3,0.3,0.5,2017-09-11-16:22:43
8201,10802_CF_CFS_mono_identity,108,8201,L,27,27,Complete,I,A,D,F4,F4020.png,F4064.png,F4040.png,F4064.png,D,1,0.871406609,0.3,0.3,0.5,2017-09-11-16:22:46
8201,10802_CF_CFS_mono_identity,10802,8201,L,28,1,CatchOnly,NaN,A,NaN,2,F2017.png,F2067.png,F2067.png,F2032.png,2,0,4.862291223,0.3,NaN,0.5,2017-09-11-16:22:52
8201,10802_CF_CFS_mono_identity,108,8201,L,29,28,Complete,I,A,D,M3,M3187.png,M3153.png,M3013.png,M3153.png,D,1,0.988022039,0.3,0.3,0.5,2017-09-11-16:22:55
8201,10802_CF_CFS_mono_identity,108,8201,L,30,29,Complete,C,A,S,F1,F1002.png,F1059.png,F1002.png,F1059.png,D,0,0.759457111,0.3,0.3,0.5,2017-09-11-16:22:58
8201,10802_CF_CFS_mono_identity,108,8201,L,31,30,Complete,I,A,D,F2,F2016.png,F2017.png,F2032.png,F2017.png,D,1,0.996253881,0.3,0.3,0.5,2017-09-11-16:23:01
8201,10802_CF_CFS_mono_identity,108,8201,L,32,31,Complete,I,A,S,M3,M3183.png,M3013.png,M3183.png,M3187.png,S,1,0.791274197,0.3,0.3,0.5,2017-09-11-16:23:04
8201,10802_CF_CFS_mono_identity,108,8201,L,33,32,Complete,C,A,D,M5,M5146.png,M5152.png,M5178.png,M5154.png,D,1,0.690707959,0.3,0.3,0.5,2017-09-11-16:23:06
8201,10802_CF_CFS_mono_identity,108,8201,L,34,33,Complete,C,M,D,M4,M4134.png,M4188.png,M4197.png,M4136.png,D,1,0.57817734,0.3,0.3,0.5,2017-09-11-16:23:09
8201,10802_CF_CFS_mono_identity,108,8201,L,35,34,Complete,C,A,D,F2,F2067.png,F2032.png,F2016.png,F2017.png,D,1,0.78196389,0.3,0.3,0.5,2017-09-11-16:23:11
8201,10802_CF_CFS_mono_identity,108,8201,L,36,35,Complete,I,A,S,F3,F3079.png,F3062.png,F3079.png,F3047.png,S,1,0.929725103,0.3,0.3,0.5,2017-09-11-16:23:14
8201,10802_CF_CFS_mono_identity,108,8201,L,37,36,Complete,C,M,S,M4,M4188.png,M4197.png,M4188.png,M4197.png,S,1,0.543460367,0.3,0.3,0.5,2017-09-11-16:23:17
8201,10802_CF_CFS_mono_identity,108,8201,L,38,37,Complete,I,M,S,M2,M2201.png,M2198.png,M2201.png,M2141.png,S,1,1.092611157,0.3,0.3,0.5,2017-09-11-16:23:20
8201,10802_CF_CFS_mono_identity,108,8201,L,39,38,Complete,C,A,D,M3,M3013.png,M3187.png,M3153.png,M3183.png,D,1,0.612045579,0.3,0.3,0.5,2017-09-11-16:23:22
8201,10802_CF_CFS_mono_identity,108,8201,L,40,39,Complete,C,A,D,F4,F4040.png,F4020.png,F4064.png,F4018.png,D,1,0.646487999,0.3,0.3,0.5,2017-09-11-16:23:25
8201,10802_CF_CFS_mono_identity,108,8201,L,41,40,Complete,I,M,D,M1,M1119.png,M1122.png,M1125.png,M1122.png,D,1,0.551621873,0.3,0.3,0.5,2017-09-11-16:23:45
8201,10802_CF_CFS_mono_identity,108,8201,L,42,41,Complete,I,A,D,M1,M1119.png,M1122.png,M1125.png,M1122.png,D,1,0.700121742,0.3,0.3,0.5,2017-09-11-16:23:47
8201,10802_CF_CFS_mono_identity,108,8201,L,43,42,Complete,I,A,D,F1,F1046.png,F1015.png,F1059.png,F1015.png,D,1,0.587213875,0.3,0.3,0.5,2017-09-11-16:23:50
8201,10802_CF_CFS_mono_identity,108,8201,L,44,43,Complete,C,M,D,F2,F2017.png,F2067.png,F2032.png,F2016.png,D,1,0.790629924,0.3,0.3,0.5,2017-09-11-16:23:53
8201,10802_CF_CFS_mono_identity,108,8201,L,45,44,Complete,C,A,S,M4,M4188.png,M4197.png,M4188.png,M4197.png,S,1,0.538170447,0.3,0.3,0.5,2017-09-11-16:23:55
8201,10802_CF_CFS_mono_identity,108,8201,L,46,45,Complete,C,M,D,M3,M3183.png,M3013.png,M3187.png,M3153.png,D,1,0.999606974,0.3,0.3,0.5,2017-09-11-16:23:58
8201,10802_CF_CFS_mono_identity,108,8201,L,47,46,Complete,I,A,D,M4,M4197.png,M4136.png,M4188.png,M4136.png,D,1,0.554688877,0.3,0.3,0.5,2017-09-11-16:24:00
8201,10802_CF_CFS_mono_identity,108,8201,L,48,47,Complete,I,M,S,F3,F3112.png,F3079.png,F3112.png,F3062.png,S,1,0.631554419,0.3,0.3,0.5,2017-09-11-16:24:03
8201,10802_CF_CFS_mono_identity,108,8201,L,49,48,Complete,I,M,D,M3,M3013.png,M3187.png,M3183.png,M3187.png,D,1,0.553345929,0.3,0.3,0.5,2017-09-11-16:24:05
8201,10802_CF_CFS_mono_identity,108,8201,L,50,49,Complete,I,A,S,F1,F1046.png,F1015.png,F1046.png,F1002.png,S,1,0.918082343,0.3,0.3,0.5,2017-09-11-16:24:08
8201,10802_CF_CFS_mono_identity,108,8201,L,51,50,Complete,C,M,S,M3,M3013.png,M3187.png,M3013.png,M3187.png,S,1,0.644184825,0.3,0.3,0.5,2017-09-11-16:24:11
8201,10802_CF_CFS_mono_identity,108,8201,L,52,51,Complete,I,M,S,F3,F3079.png,F3062.png,F3079.png,F3047.png,S,1,0.581347332,0.3,0.3,0.5,2017-09-11-16:24:13
8201,10802_CF_CFS_mono_identity,108,8201,L,53,52,Complete,C,M,S,F5,F5068.png,F5076.png,F5068.png,F5076.png,S,1,0.689123355,0.3,0.3,0.5,2017-09-11-16:24:16
8201,10802_CF_CFS_mono_identity,108,8201,L,54,53,Complete,I,A,D,F4,F4040.png,F4020.png,F4018.png,F4020.png,S,0,0.792565236,0.3,0.3,0.5,2017-09-11-16:24:19
8201,10802_CF_CFS_mono_identity,108,8201,L,55,54,Complete,I,A,S,M5,M5146.png,M5152.png,M5146.png,M5178.png,D,0,0.748005616,0.3,0.3,0.5,2017-09-11-16:24:21
8201,10802_CF_CFS_mono_identity,108,8201,L,56,55,Complete,I,A,D,F2,F2017.png,F2067.png,F2016.png,F2067.png,D,1,0.905093215,0.3,0.3,0.5,2017-09-11-16:24:24
8201,10802_CF_CFS_mono_identity,108,8201,L,57,56,Complete,I,A,D,F4,F4018.png,F4040.png,F4064.png,F4040.png,S,0,1.239874195,0.3,0.3,0.5,2017-09-11-16:24:27
8201,10802_CF_CFS_mono_identity,108,8201,L,58,57,Complete,C,M,S,F3,F3112.png,F3079.png,F3112.png,F3079.png,S,1,1.161145391,0.3,0.3,0.5,2017-09-11-16:24:30
8201,10802_CF_CFS_mono_identity,108,8201,L,59,58,Complete,C,M,D,F2,F2016.png,F2017.png,F2067.png,F2032.png,D,1,0.765616195,0.3,0.3,0.5,2017-09-11-16:24:33
8201,10802_CF_CFS_mono_identity,108,8201,L,60,59,Complete,I,A,D,F3,F3079.png,F3062.png,F3112.png,F3062.png,D,1,0.601998276,0.3,0.3,0.5,2017-09-11-16:24:35
8201,10802_CF_CFS_mono_identity,10802,8201,L,61,2,CatchOnly,NaN,M,NaN,10,M5178.png,M5154.png,M5154.png,M5146.png,1,0,3.055766036,0.3,NaN,0.5,2017-09-11-16:24:40
8201,10802_CF_CFS_mono_identity,108,8201,L,62,60,Complete,C,A,D,F1,F1046.png,F1015.png,F1002.png,F1059.png,D,1,0.80305758,0.3,0.3,0.5,2017-09-11-16:24:43
8201,10802_CF_CFS_mono_identity,108,8201,L,63,61,Complete,I,M,D,F2,F2016.png,F2017.png,F2032.png,F2017.png,D,1,0.565953899,0.3,0.3,0.5,2017-09-11-16:24:45
8201,10802_CF_CFS_mono_identity,108,8201,L,64,62,Complete,I,M,D,M5,M5152.png,M5178.png,M5146.png,M5178.png,D,1,0.554382308,0.3,0.3,0.5,2017-09-11-16:24:48
8201,10802_CF_CFS_mono_identity,108,8201,L,65,63,Complete,C,M,D,F5,F5076.png,F5078.png,F5033.png,F5068.png,D,1,0.64715598,0.3,0.3,0.5,2017-09-11-16:24:50
8201,10802_CF_CFS_mono_identity,108,8201,L,66,64,Complete,C,M,S,M1,M1122.png,M1186.png,M1122.png,M1186.png,D,0,0.672323431,0.3,0.3,0.5,2017-09-11-16:24:53
8201,10802_CF_CFS_mono_identity,108,8201,L,67,65,Complete,I,A,D,F5,F5068.png,F5076.png,F5033.png,F5076.png,D,1,1.03239499,0.3,0.3,0.5,2017-09-11-16:24:56
8201,10802_CF_CFS_mono_identity,108,8201,L,68,66,Complete,C,M,D,F3,F3112.png,F3079.png,F3062.png,F3047.png,D,1,0.57020959,0.3,0.3,0.5,2017-09-11-16:24:58
8201,10802_CF_CFS_mono_identity,108,8201,L,69,67,Complete,I,A,D,F3,F3112.png,F3079.png,F3047.png,F3079.png,S,0,1.182326229,0.3,0.3,0.5,2017-09-11-16:25:02
8201,10802_CF_CFS_mono_identity,10802,8201,L,70,3,CatchOnly,NaN,M,NaN,7,M2142.png,M2201.png,M2201.png,M2198.png,2,0,2.745915642,0.3,NaN,0.5,2017-09-11-16:25:06
8201,10802_CF_CFS_mono_identity,108,8201,L,71,68,Complete,C,A,S,F4,F4040.png,F4020.png,F4040.png,F4020.png,S,1,0.629396807,0.3,0.3,0.5,2017-09-11-16:25:09
8201,10802_CF_CFS_mono_identity,108,8201,L,72,69,Complete,I,A,D,F1,F1015.png,F1002.png,F1046.png,F1002.png,D,1,0.535185609,0.3,0.3,0.5,2017-09-11-16:25:11
8201,10802_CF_CFS_mono_identity,10802,8201,L,73,4,CatchOnly,NaN,A,NaN,1,F1015.png,F1002.png,F1002.png,F1059.png,1,0,2.739977931,0.3,NaN,0.5,2017-09-11-16:25:16
8201,10802_CF_CFS_mono_identity,108,8201,L,74,70,Complete,C,M,S,F2,F2017.png,F2067.png,F2017.png,F2067.png,S,1,2.344216377,0.3,0.3,0.5,2017-09-11-16:25:20
8201,10802_CF_CFS_mono_identity,108,8201,L,75,71,Complete,C,M,S,F2,F2067.png,F2032.png,F2067.png,F2032.png,S,1,0.66117303,0.3,0.3,0.5,2017-09-11-16:25:22
8201,10802_CF_CFS_mono_identity,108,8201,L,76,72,Complete,I,M,D,F4,F4040.png,F4020.png,F4018.png,F4020.png,D,1,0.589695848,0.3,0.3,0.5,2017-09-11-16:25:25
8201,10802_CF_CFS_mono_identity,108,8201,L,77,73,Complete,C,A,S,M3,M3013.png,M3187.png,M3013.png,M3187.png,S,1,0.673165272,0.3,0.3,0.5,2017-09-11-16:25:27
8201,10802_CF_CFS_mono_identity,108,8201,L,78,74,Complete,C,A,D,F4,F4020.png,F4064.png,F4018.png,F4040.png,D,1,0.945277293,0.3,0.3,0.5,2017-09-11-16:25:30
8201,10802_CF_CFS_mono_identity,108,8201,L,79,75,Complete,C,M,S,F4,F4018.png,F4040.png,F4018.png,F4040.png,S,1,1.046288866,0.3,0.3,0.5,2017-09-11-16:25:33
8201,10802_CF_CFS_mono_identity,108,8201,L,80,76,Complete,C,M,S,M2,M2198.png,M2141.png,M2198.png,M2141.png,S,1,1.839264137,0.3,0.3,0.5,2017-09-11-16:25:37
8201,10802_CF_CFS_mono_identity,108,8201,L,81,77,Complete,I,M,D,M3,M3153.png,M3183.png,M3187.png,M3183.png,D,1,0.536619129,0.3,0.3,0.5,2017-09-11-16:25:39
8201,10802_CF_CFS_mono_identity,108,8201,L,82,78,Complete,I,M,S,M2,M2141.png,M2142.png,M2141.png,M2201.png,S,1,0.782072695,0.3,0.3,0.5,2017-09-11-16:25:42
8201,10802_CF_CFS_mono_identity,108,8201,L,83,79,Complete,C,A,S,M3,M3183.png,M3013.png,M3183.png,M3013.png,S,1,0.681871338,0.3,0.3,0.5,2017-09-11-16:25:45
8201,10802_CF_CFS_mono_identity,108,8201,L,84,80,Complete,I,M,D,F3,F3079.png,F3062.png,F3112.png,F3062.png,D,1,0.544761327,0.3,0.3,0.5,2017-09-11-16:26:11
8201,10802_CF_CFS_mono_identity,108,8201,L,85,81,Complete,C,M,D,F3,F3079.png,F3062.png,F3047.png,F3112.png,D,1,0.597804858,0.3,0.3,0.5,2017-09-11-16:26:13
8201,10802_CF_CFS_mono_identity,108,8201,L,86,82,Complete,C,A,D,F1,F1015.png,F1002.png,F1059.png,F1046.png,D,1,0.640972847,0.3,0.3,0.5,2017-09-11-16:26:16
8201,10802_CF_CFS_mono_identity,108,8201,L,87,83,Complete,I,A,S,M4,M4188.png,M4197.png,M4188.png,M4136.png,S,1,0.754465793,0.3,0.3,0.5,2017-09-11-16:26:18
8201,10802_CF_CFS_mono_identity,108,8201,L,88,84,Complete,C,A,S,F4,F4064.png,F4018.png,F4064.png,F4018.png,S,1,0.48728932,0.3,0.3,0.5,2017-09-11-16:26:21
8201,10802_CF_CFS_mono_identity,108,8201,L,89,85,Complete,I,M,D,M4,M4134.png,M4188.png,M4136.png,M4188.png,D,1,0.966640453,0.3,0.3,0.5,2017-09-11-16:26:24
8201,10802_CF_CFS_mono_identity,108,8201,L,90,86,Complete,C,M,S,M2,M2142.png,M2201.png,M2142.png,M2201.png,S,1,1.31511862,0.3,0.3,0.5,2017-09-11-16:26:27
8201,10802_CF_CFS_mono_identity,108,8201,L,91,87,Complete,I,M,D,F2,F2032.png,F2016.png,F2067.png,F2016.png,D,1,0.641391593,0.3,0.3,0.5,2017-09-11-16:26:29
8201,10802_CF_CFS_mono_identity,108,8201,L,92,88,Complete,C,M,D,F5,F5078.png,F5033.png,F5068.png,F5076.png,D,1,0.714947886,0.3,0.3,0.5,2017-09-11-16:26:32
8201,10802_CF_CFS_mono_identity,108,8201,L,93,89,Complete,C,A,S,M4,M4197.png,M4136.png,M4197.png,M4136.png,S,1,0.641375901,0.3,0.3,0.5,2017-09-11-16:26:35
8201,10802_CF_CFS_mono_identity,108,8201,L,94,90,Complete,I,A,D,M5,M5152.png,M5178.png,M5146.png,M5178.png,S,0,1.050769693,0.3,0.3,0.5,2017-09-11-16:26:38
8201,10802_CF_CFS_mono_identity,108,8201,L,95,91,Complete,I,A,S,M5,M5154.png,M5146.png,M5154.png,M5152.png,S,1,2.115745101,0.3,0.3,0.5,2017-09-11-16:26:42
8201,10802_CF_CFS_mono_identity,108,8201,L,96,92,Complete,I,M,S,F1,F1015.png,F1002.png,F1015.png,F1059.png,S,1,0.810048436,0.3,0.3,0.5,2017-09-11-16:26:44
8201,10802_CF_CFS_mono_identity,108,8201,L,97,93,Complete,I,M,D,F3,F3062.png,F3047.png,F3079.png,F3047.png,D,1,0.932439105,0.3,0.3,0.5,2017-09-11-16:26:47
8201,10802_CF_CFS_mono_identity,108,8201,L,98,94,Complete,C,M,D,F1,F1015.png,F1002.png,F1059.png,F1046.png,D,1,1.922080589,0.3,0.3,0.5,2017-09-11-16:26:51
8201,10802_CF_CFS_mono_identity,108,8201,L,99,95,Complete,C,M,S,M2,M2141.png,M2142.png,M2141.png,M2142.png,S,1,0.640061793,0.3,0.3,0.5,2017-09-11-16:26:54
8201,10802_CF_CFS_mono_identity,108,8201,L,100,96,Complete,I,M,D,M1,M1122.png,M1186.png,M1119.png,M1186.png,D,1,1.497483748,0.3,0.3,0.5,2017-09-11-16:26:57
8201,10802_CF_CFS_mono_identity,108,8201,L,101,97,Complete,I,A,D,M2,M2201.png,M2198.png,M2142.png,M2198.png,D,1,0.912403886,0.3,0.3,0.5,2017-09-11-16:27:00
8201,10802_CF_CFS_mono_identity,108,8201,L,102,98,Complete,C,A,D,F5,F5068.png,F5076.png,F5078.png,F5033.png,D,1,1.342822937,0.3,0.3,0.5,2017-09-11-16:27:03
8201,10802_CF_CFS_mono_identity,10802,8201,L,103,5,CatchOnly,NaN,M,NaN,9,M4197.png,M4136.png,M4136.png,M4134.png,2,1,3.940782331,0.3,NaN,0.5,2017-09-11-16:27:09
8201,10802_CF_CFS_mono_identity,108,8201,L,104,99,Complete,C,M,S,M2,M2201.png,M2198.png,M2201.png,M2198.png,S,1,1.062687884,0.3,0.3,0.5,2017-09-11-16:27:12
8201,10802_CF_CFS_mono_identity,108,8201,L,105,100,Complete,I,M,D,M3,M3183.png,M3013.png,M3153.png,M3013.png,D,1,0.695091419,0.3,0.3,0.5,2017-09-11-16:27:14
8201,10802_CF_CFS_mono_identity,108,8201,L,106,101,Complete,C,A,D,F5,F5078.png,F5033.png,F5068.png,F5076.png,D,1,0.886207092,0.3,0.3,0.5,2017-09-11-16:27:17
8201,10802_CF_CFS_mono_identity,108,8201,L,107,102,Complete,C,M,D,F5,F5033.png,F5068.png,F5076.png,F5078.png,S,0,1.837439635,0.3,0.3,0.5,2017-09-11-16:27:21
8201,10802_CF_CFS_mono_identity,108,8201,L,108,103,Complete,I,M,S,M3,M3013.png,M3187.png,M3013.png,M3153.png,D,0,0.582845617,0.3,0.3,0.5,2017-09-11-16:27:23
8201,10802_CF_CFS_mono_identity,108,8201,L,109,104,Complete,C,A,D,M1,M1119.png,M1122.png,M1186.png,M1125.png,D,1,0.818544616,0.3,0.3,0.5,2017-09-11-16:27:26
8201,10802_CF_CFS_mono_identity,108,8201,L,110,105,Complete,I,A,D,F3,F3047.png,F3112.png,F3062.png,F3112.png,S,0,1.948679656,0.3,0.3,0.5,2017-09-11-16:27:30
8201,10802_CF_CFS_mono_identity,108,8201,L,111,106,Complete,C,A,D,M4,M4134.png,M4188.png,M4197.png,M4136.png,D,1,0.961545267,0.3,0.3,0.5,2017-09-11-16:27:33
8201,10802_CF_CFS_mono_identity,108,8201,L,112,107,Complete,C,M,S,M1,M1186.png,M1125.png,M1186.png,M1125.png,D,0,1.093924679,0.3,0.3,0.5,2017-09-11-16:27:36
8201,10802_CF_CFS_mono_identity,108,8201,L,113,108,Complete,I,M,S,F3,F3047.png,F3112.png,F3047.png,F3079.png,S,1,0.605032141,0.3,0.3,0.5,2017-09-11-16:27:38
8201,10802_CF_CFS_mono_identity,108,8201,L,114,109,Complete,I,M,S,F2,F2032.png,F2016.png,F2032.png,F2017.png,S,1,0.639868036,0.3,0.3,0.5,2017-09-11-16:27:41
8201,10802_CF_CFS_mono_identity,108,8201,L,115,110,Complete,I,M,D,F3,F3112.png,F3079.png,F3047.png,F3079.png,D,1,10.38442294,0.3,0.3,0.5,2017-09-11-16:27:53
8201,10802_CF_CFS_mono_identity,108,8201,L,116,111,Complete,I,A,S,M4,M4134.png,M4188.png,M4134.png,M4197.png,S,1,0.827073593,0.3,0.3,0.5,2017-09-11-16:27:56
8201,10802_CF_CFS_mono_identity,108,8201,L,117,112,Complete,I,M,S,F4,F4018.png,F4040.png,F4018.png,F4020.png,S,1,0.484801629,0.3,0.3,0.5,2017-09-11-16:27:58
8201,10802_CF_CFS_mono_identity,108,8201,L,118,113,Complete,I,M,D,F5,F5078.png,F5033.png,F5076.png,F5033.png,D,1,0.940288712,0.3,0.3,0.5,2017-09-11-16:28:01
8201,10802_CF_CFS_mono_identity,108,8201,L,119,114,Complete,C,M,S,F1,F1046.png,F1015.png,F1046.png,F1015.png,S,1,0.609647288,0.3,0.3,0.5,2017-09-11-16:28:04
8201,10802_CF_CFS_mono_identity,108,8201,L,120,115,Complete,C,A,D,M5,M5154.png,M5146.png,M5152.png,M5178.png,S,0,0.988124342,0.3,0.3,0.5,2017-09-11-16:28:07
8201,10802_CF_CFS_mono_identity,108,8201,L,121,116,Complete,I,A,S,M4,M4197.png,M4136.png,M4197.png,M4134.png,S,1,0.935566326,0.3,0.3,0.5,2017-09-11-16:28:10
8201,10802_CF_CFS_mono_identity,108,8201,L,122,117,Complete,I,A,S,F3,F3112.png,F3079.png,F3112.png,F3062.png,S,1,1.540926484,0.3,0.3,0.5,2017-09-11-16:28:13
8201,10802_CF_CFS_mono_identity,108,8201,L,123,118,Complete,I,A,S,M1,M1119.png,M1122.png,M1119.png,M1186.png,S,1,1.418233403,0.3,0.3,0.5,2017-09-11-16:28:16
8201,10802_CF_CFS_mono_identity,108,8201,L,124,119,Complete,I,A,S,M4,M4136.png,M4134.png,M4136.png,M4188.png,D,0,8.459828175,0.3,0.3,0.5,2017-09-11-16:28:27
8201,10802_CF_CFS_mono_identity,108,8201,L,125,120,Complete,I,A,S,F5,F5033.png,F5068.png,F5033.png,F5076.png,S,1,0.762487896,0.3,0.3,0.5,2017-09-11-16:28:51
8201,10802_CF_CFS_mono_identity,108,8201,L,126,121,Complete,I,M,D,M2,M2141.png,M2142.png,M2198.png,M2142.png,D,1,0.526914321,0.3,0.3,0.5,2017-09-11-16:28:54
8201,10802_CF_CFS_mono_identity,108,8201,L,127,122,Complete,C,A,D,M4,M4188.png,M4197.png,M4136.png,M4134.png,D,1,0.596691836,0.3,0.3,0.5,2017-09-11-16:28:56
8201,10802_CF_CFS_mono_identity,108,8201,L,128,123,Complete,C,A,S,F2,F2016.png,F2017.png,F2016.png,F2017.png,S,1,0.847859345,0.3,0.3,0.5,2017-09-11-16:28:59
8201,10802_CF_CFS_mono_identity,108,8201,L,129,124,Complete,I,A,D,F5,F5078.png,F5033.png,F5076.png,F5033.png,D,1,0.688888882,0.3,0.3,0.5,2017-09-11-16:29:02
8201,10802_CF_CFS_mono_identity,108,8201,L,130,125,Complete,C,M,D,F3,F3047.png,F3112.png,F3079.png,F3062.png,D,1,0.528398921,0.3,0.3,0.5,2017-09-11-16:29:04
8201,10802_CF_CFS_mono_identity,108,8201,L,131,126,Complete,I,A,D,F4,F4064.png,F4018.png,F4020.png,F4018.png,D,1,0.622221189,0.3,0.3,0.5,2017-09-11-16:29:07
8201,10802_CF_CFS_mono_identity,108,8201,L,132,127,Complete,C,A,S,M3,M3153.png,M3183.png,M3153.png,M3183.png,S,1,1.104331926,0.3,0.3,0.5,2017-09-11-16:29:10
8201,10802_CF_CFS_mono_identity,108,8201,L,133,128,Complete,C,A,D,F3,F3112.png,F3079.png,F3062.png,F3047.png,D,1,0.591072327,0.3,0.3,0.5,2017-09-11-16:29:12
8201,10802_CF_CFS_mono_identity,10802,8201,L,134,6,CatchOnly,NaN,M,NaN,8,M3183.png,M3013.png,M3013.png,M3187.png,2,1,10.81040964,0.3,NaN,0.5,2017-09-11-16:29:25
8201,10802_CF_CFS_mono_identity,108,8201,L,135,129,Complete,C,M,S,M4,M4197.png,M4136.png,M4197.png,M4136.png,D,0,2.682399621,0.3,0.3,0.5,2017-09-11-16:29:29
8201,10802_CF_CFS_mono_identity,108,8201,L,136,130,Complete,C,M,D,M5,M5146.png,M5152.png,M5178.png,M5154.png,D,1,1.409862354,0.3,0.3,0.5,2017-09-11-16:29:33
8201,10802_CF_CFS_mono_identity,108,8201,L,137,131,Complete,C,M,D,F4,F4040.png,F4020.png,F4064.png,F4018.png,S,0,0.660617521,0.3,0.3,0.5,2017-09-11-16:29:35
8201,10802_CF_CFS_mono_identity,108,8201,L,138,132,Complete,I,M,D,M4,M4188.png,M4197.png,M4134.png,M4197.png,D,1,0.629043706,0.3,0.3,0.5,2017-09-11-16:29:38
8201,10802_CF_CFS_mono_identity,108,8201,L,139,133,Complete,I,A,S,M1,M1122.png,M1186.png,M1122.png,M1125.png,S,1,0.638862793,0.3,0.3,0.5,2017-09-11-16:29:40
8201,10802_CF_CFS_mono_identity,108,8201,L,140,134,Complete,C,M,S,M3,M3187.png,M3153.png,M3187.png,M3153.png,S,1,0.5683736,0.3,0.3,0.5,2017-09-11-16:29:43
8201,10802_CF_CFS_mono_identity,108,8201,L,141,135,Complete,I,A,S,F4,F4064.png,F4018.png,F4064.png,F4040.png,S,1,1.284693313,0.3,0.3,0.5,2017-09-11-16:29:46
8201,10802_CF_CFS_mono_identity,108,8201,L,142,136,Complete,I,M,D,F1,F1015.png,F1002.png,F1046.png,F1002.png,S,0,0.956114283,0.3,0.3,0.5,2017-09-11-16:29:49
8201,10802_CF_CFS_mono_identity,108,8201,L,143,137,Complete,C,M,S,F5,F5033.png,F5068.png,F5033.png,F5068.png,D,0,5.472411169,0.3,0.3,0.5,2017-09-11-16:29:56
8201,10802_CF_CFS_mono_identity,108,8201,L,144,138,Complete,I,M,D,F5,F5068.png,F5076.png,F5033.png,F5076.png,S,0,1.079900541,0.3,0.3,0.5,2017-09-11-16:29:59
8201,10802_CF_CFS_mono_identity,10802,8201,L,145,7,CatchOnly,NaN,A,NaN,8,M3183.png,M3013.png,M3013.png,M3187.png,1,1,2.855351006,0.3,NaN,0.5,2017-09-11-16:30:04
8201,10802_CF_CFS_mono_identity,108,8201,L,146,139,Complete,I,M,D,F4,F4018.png,F4040.png,F4064.png,F4040.png,S,0,0.57532213,0.3,0.3,0.5,2017-09-11-16:30:06
8201,10802_CF_CFS_mono_identity,10802,8201,L,147,8,CatchOnly,NaN,A,NaN,7,M2142.png,M2201.png,M2201.png,M2198.png,2,0,3.06116085,0.3,NaN,0.5,2017-09-11-16:30:11
8201,10802_CF_CFS_mono_identity,108,8201,L,148,140,Complete,C,A,S,M5,M5154.png,M5146.png,M5154.png,M5146.png,D,0,5.570570218,0.3,0.3,0.5,2017-09-11-16:30:18
8201,10802_CF_CFS_mono_identity,108,8201,L,149,141,Complete,C,M,S,M3,M3183.png,M3013.png,M3183.png,M3013.png,S,1,0.438046075,0.3,0.3,0.5,2017-09-11-16:30:21
8201,10802_CF_CFS_mono_identity,108,8201,L,150,142,Complete,C,A,D,M1,M1186.png,M1125.png,M1119.png,M1122.png,D,1,0.671520888,0.3,0.3,0.5,2017-09-11-16:30:23
8201,10802_CF_CFS_mono_identity,108,8201,L,151,143,Complete,I,M,D,F4,F4064.png,F4018.png,F4020.png,F4018.png,D,1,0.575645706,0.3,0.3,0.5,2017-09-11-16:30:26
8201,10802_CF_CFS_mono_identity,108,8201,L,152,144,Complete,I,A,S,M5,M5152.png,M5178.png,M5152.png,M5154.png,S,1,0.779741269,0.3,0.3,0.5,2017-09-11-16:30:29
8201,10802_CF_CFS_mono_identity,108,8201,L,153,145,Complete,I,A,D,F5,F5033.png,F5068.png,F5078.png,F5068.png,D,1,0.759524857,0.3,0.3,0.5,2017-09-11-16:30:31
8201,10802_CF_CFS_mono_identity,108,8201,L,154,146,Complete,I,M,S,M5,M5152.png,M5178.png,M5152.png,M5154.png,D,0,0.628262621,0.3,0.3,0.5,2017-09-11-16:30:34
8201,10802_CF_CFS_mono_identity,108,8201,L,155,147,Complete,I,M,S,M3,M3187.png,M3153.png,M3187.png,M3183.png,S,1,0.662070056,0.3,0.3,0.5,2017-09-11-16:30:36
8201,10802_CF_CFS_mono_identity,108,8201,L,156,148,Complete,I,A,S,F5,F5078.png,F5033.png,F5078.png,F5068.png,S,1,3.350233223,0.3,0.3,0.5,2017-09-11-16:30:42
8201,10802_CF_CFS_mono_identity,108,8201,L,157,149,Complete,I,A,S,F2,F2032.png,F2016.png,F2032.png,F2017.png,D,0,8.050472363,0.3,0.3,0.5,2017-09-11-16:30:52
8201,10802_CF_CFS_mono_identity,108,8201,L,158,150,Complete,I,M,D,F2,F2067.png,F2032.png,F2017.png,F2032.png,D,1,5.970206168,0.3,0.3,0.5,2017-09-11-16:30:59
8201,10802_CF_CFS_mono_identity,108,8201,L,159,151,Complete,I,M,S,F5,F5033.png,F5068.png,F5033.png,F5076.png,S,1,0.509707823,0.3,0.3,0.5,2017-09-11-16:31:02
8201,10802_CF_CFS_mono_identity,10802,8201,L,160,9,CatchOnly,NaN,M,NaN,4,F4020.png,F4064.png,F4064.png,F4018.png,1,0,1.885915813,0.3,NaN,0.5,2017-09-11-16:31:05
8201,10802_CF_CFS_mono_identity,108,8201,L,161,152,Complete,I,A,S,M3,M3187.png,M3153.png,M3187.png,M3183.png,S,1,0.619167479,0.3,0.3,0.5,2017-09-11-16:31:08
8201,10802_CF_CFS_mono_identity,108,8201,L,162,153,Complete,C,A,D,M1,M1122.png,M1186.png,M1125.png,M1119.png,D,1,0.693171701,0.3,0.3,0.5,2017-09-11-16:31:11
8201,10802_CF_CFS_mono_identity,10802,8201,L,163,10,CatchOnly,NaN,A,NaN,4,F4020.png,F4064.png,F4064.png,F4018.png,1,0,11.54041281,0.3,NaN,0.5,2017-09-11-16:31:24
8201,10802_CF_CFS_mono_identity,108,8201,L,164,154,Complete,C,M,S,M4,M4134.png,M4188.png,M4134.png,M4188.png,S,1,0.406703213,0.3,0.3,0.5,2017-09-11-16:31:26
8201,10802_CF_CFS_mono_identity,108,8201,L,165,155,Complete,C,M,S,M5,M5178.png,M5154.png,M5178.png,M5154.png,S,1,0.665489085,0.3,0.3,0.5,2017-09-11-16:31:29
8201,10802_CF_CFS_mono_identity,108,8201,L,166,156,Complete,I,M,S,M4,M4188.png,M4197.png,M4188.png,M4136.png,S,1,0.481976721,0.3,0.3,0.5,2017-09-11-16:31:31
8201,10802_CF_CFS_mono_identity,108,8201,L,167,157,Complete,C,A,S,F4,F4020.png,F4064.png,F4020.png,F4064.png,S,1,5.537276403,0.3,0.3,0.5,2017-09-11-16:31:39
8201,10802_CF_CFS_mono_identity,108,8201,L,168,158,Complete,I,M,D,F1,F1059.png,F1046.png,F1002.png,F1046.png,S,0,3.197905646,0.3,0.3,0.5,2017-09-11-16:31:44
8201,10802_CF_CFS_mono_identity,108,8201,L,169,159,Complete,C,A,D,F5,F5033.png,F5068.png,F5076.png,F5078.png,D,1,6.448245635,0.3,0.3,0.5,2017-09-11-16:31:52
8201,10802_CF_CFS_mono_identity,108,8201,L,170,160,Complete,C,M,S,M3,M3153.png,M3183.png,M3153.png,M3183.png,S,1,0.603611182,0.3,0.3,0.5,2017-09-11-16:32:19
8201,10802_CF_CFS_mono_identity,10802,8201,L,171,11,CatchOnly,NaN,M,NaN,5,F5033.png,F5068.png,F5068.png,F5076.png,1,0,2.495475745,0.3,NaN,0.5,2017-09-11-16:32:23
8201,10802_CF_CFS_mono_identity,108,8201,L,172,161,Complete,C,A,D,F4,F4064.png,F4018.png,F4040.png,F4020.png,D,1,0.684530888,0.3,0.3,0.5,2017-09-11-16:32:26
8201,10802_CF_CFS_mono_identity,108,8201,L,173,162,Complete,C,A,D,F2,F2032.png,F2016.png,F2017.png,F2067.png,D,1,0.532271107,0.3,0.3,0.5,2017-09-11-16:32:28
8201,10802_CF_CFS_mono_identity,108,8201,L,174,163,Complete,I,M,S,M5,M5178.png,M5154.png,M5178.png,M5146.png,S,1,0.474145197,0.3,0.3,0.5,2017-09-11-16:32:31
8201,10802_CF_CFS_mono_identity,108,8201,L,175,164,Complete,C,M,D,M3,M3153.png,M3183.png,M3013.png,M3187.png,D,1,0.714292664,0.3,0.3,0.5,2017-09-11-16:32:33
8201,10802_CF_CFS_mono_identity,108,8201,L,176,165,Complete,C,M,D,F4,F4018.png,F4040.png,F4020.png,F4064.png,D,1,1.248590525,0.3,0.3,0.5,2017-09-11-16:32:36
8201,10802_CF_CFS_mono_identity,108,8201,L,177,166,Complete,C,M,S,F3,F3062.png,F3047.png,F3062.png,F3047.png,S,1,0.625744673,0.3,0.3,0.5,2017-09-11-16:32:39
8201,10802_CF_CFS_mono_identity,108,8201,L,178,167,Complete,C,M,S,F4,F4040.png,F4020.png,F4040.png,F4020.png,S,1,0.547889284,0.3,0.3,0.5,2017-09-11-16:32:41
8201,10802_CF_CFS_mono_identity,108,8201,L,179,168,Complete,I,A,D,M5,M5146.png,M5152.png,M5154.png,M5152.png,D,1,0.600982426,0.3,0.3,0.5,2017-09-11-16:32:44
8201,10802_CF_CFS_mono_identity,108,8201,L,180,169,Complete,I,M,S,F5,F5068.png,F5076.png,F5068.png,F5078.png,S,1,0.540142809,0.3,0.3,0.5,2017-09-11-16:32:46
8201,10802_CF_CFS_mono_identity,108,8201,L,181,170,Complete,C,A,D,M5,M5152.png,M5178.png,M5154.png,M5146.png,S,0,1.065584937,0.3,0.3,0.5,2017-09-11-16:32:49
8201,10802_CF_CFS_mono_identity,108,8201,L,182,171,Complete,C,A,S,M4,M4136.png,M4134.png,M4136.png,M4134.png,S,1,0.674012099,0.3,0.3,0.5,2017-09-11-16:32:52
8201,10802_CF_CFS_mono_identity,108,8201,L,183,172,Complete,I,A,D,F1,F1059.png,F1046.png,F1002.png,F1046.png,D,1,1.306099143,0.3,0.3,0.5,2017-09-11-16:32:55
8201,10802_CF_CFS_mono_identity,108,8201,L,184,173,Complete,C,M,S,F4,F4020.png,F4064.png,F4020.png,F4064.png,D,0,1.73664958,0.3,0.3,0.5,2017-09-11-16:32:59
8201,10802_CF_CFS_mono_identity,108,8201,L,185,174,Complete,I,M,D,M2,M2198.png,M2141.png,M2201.png,M2141.png,D,1,0.885991097,0.3,0.3,0.5,2017-09-11-16:33:02
8201,10802_CF_CFS_mono_identity,108,8201,L,186,175,Complete,C,M,S,F1,F1002.png,F1059.png,F1002.png,F1059.png,D,0,2.613209093,0.3,0.3,0.5,2017-09-11-16:33:06
8201,10802_CF_CFS_mono_identity,108,8201,L,187,176,Complete,C,M,D,M3,M3013.png,M3187.png,M3153.png,M3183.png,D,1,0.495494474,0.3,0.3,0.5,2017-09-11-16:33:09
8201,10802_CF_CFS_mono_identity,108,8201,L,188,177,Complete,C,M,S,F5,F5076.png,F5078.png,F5076.png,F5078.png,D,0,0.470672009,0.3,0.3,0.5,2017-09-11-16:33:11
8201,10802_CF_CFS_mono_identity,108,8201,L,189,178,Complete,C,A,D,M2,M2142.png,M2201.png,M2198.png,M2141.png,D,1,0.58282064,0.3,0.3,0.5,2017-09-11-16:33:13
8201,10802_CF_CFS_mono_identity,108,8201,L,190,179,Complete,C,A,D,F3,F3047.png,F3112.png,F3079.png,F3062.png,D,1,0.994632422,0.3,0.3,0.5,2017-09-11-16:33:16
8201,10802_CF_CFS_mono_identity,108,8201,L,191,180,Complete,I,M,S,M2,M2198.png,M2141.png,M2198.png,M2142.png,S,1,0.757661496,0.3,0.3,0.5,2017-09-11-16:33:19
8201,10802_CF_CFS_mono_identity,108,8201,L,192,181,Complete,I,M,S,F1,F1002.png,F1059.png,F1002.png,F1046.png,D,0,7.033860282,0.3,0.3,0.5,2017-09-11-16:33:28
8201,10802_CF_CFS_mono_identity,108,8201,L,193,182,Complete,I,A,D,M4,M4136.png,M4134.png,M4197.png,M4134.png,D,1,0.522967936,0.3,0.3,0.5,2017-09-11-16:33:30
8201,10802_CF_CFS_mono_identity,108,8201,L,194,183,Complete,C,M,D,F2,F2067.png,F2032.png,F2016.png,F2017.png,D,1,1.05707077,0.3,0.3,0.5,2017-09-11-16:33:33
8201,10802_CF_CFS_mono_identity,108,8201,L,195,184,Complete,I,M,D,M3,M3187.png,M3153.png,M3013.png,M3153.png,S,0,3.0895944,0.3,0.3,0.5,2017-09-11-16:33:38
8201,10802_CF_CFS_mono_identity,108,8201,L,196,185,Complete,C,A,S,M2,M2141.png,M2142.png,M2141.png,M2142.png,S,1,0.480736272,0.3,0.3,0.5,2017-09-11-16:33:41
8201,10802_CF_CFS_mono_identity,108,8201,L,197,186,Complete,I,M,D,M5,M5178.png,M5154.png,M5152.png,M5154.png,D,1,0.544579156,0.3,0.3,0.5,2017-09-11-16:33:43
8201,10802_CF_CFS_mono_identity,108,8201,L,198,187,Complete,C,M,D,M4,M4188.png,M4197.png,M4136.png,M4134.png,D,1,0.565785218,0.3,0.3,0.5,2017-09-11-16:33:46
8201,10802_CF_CFS_mono_identity,108,8201,L,199,188,Complete,C,M,S,M1,M1125.png,M1119.png,M1125.png,M1119.png,D,0,3.16192574,0.3,0.3,0.5,2017-09-11-16:33:51
8201,10802_CF_CFS_mono_identity,108,8201,L,200,189,Complete,C,M,D,M2,M2141.png,M2142.png,M2201.png,M2198.png,D,1,0.846201618,0.3,0.3,0.5,2017-09-11-16:33:54
8201,10802_CF_CFS_mono_identity,108,8201,L,201,190,Complete,I,M,S,F1,F1059.png,F1046.png,F1059.png,F1015.png,S,1,1.18315986,0.3,0.3,0.5,2017-09-11-16:33:57
8201,10802_CF_CFS_mono_identity,108,8201,L,202,191,Complete,C,M,S,F5,F5078.png,F5033.png,F5078.png,F5033.png,D,0,6.426430346,0.3,0.3,0.5,2017-09-11-16:34:05
8201,10802_CF_CFS_mono_identity,108,8201,L,203,192,Complete,C,A,D,M3,M3153.png,M3183.png,M3013.png,M3187.png,D,1,1.963709136,0.3,0.3,0.5,2017-09-11-16:34:09
8201,10802_CF_CFS_mono_identity,108,8201,L,204,193,Complete,C,A,S,M5,M5152.png,M5178.png,M5152.png,M5178.png,S,1,0.616081608,0.3,0.3,0.5,2017-09-11-16:34:11
8201,10802_CF_CFS_mono_identity,108,8201,L,205,194,Complete,I,A,S,F5,F5068.png,F5076.png,F5068.png,F5078.png,S,1,0.586538124,0.3,0.3,0.5,2017-09-11-16:34:14
8201,10802_CF_CFS_mono_identity,108,8201,L,206,195,Complete,C,A,D,F2,F2017.png,F2067.png,F2032.png,F2016.png,D,1,0.653972581,0.3,0.3,0.5,2017-09-11-16:34:16
8201,10802_CF_CFS_mono_identity,108,8201,L,207,196,Complete,I,M,S,M2,M2142.png,M2201.png,M2142.png,M2198.png,S,1,0.854795799,0.3,0.3,0.5,2017-09-11-16:34:19
8201,10802_CF_CFS_mono_identity,108,8201,L,208,197,Complete,C,M,D,F2,F2032.png,F2016.png,F2017.png,F2067.png,D,1,0.751564,0.3,0.3,0.5,2017-09-11-16:34:22
8201,10802_CF_CFS_mono_identity,10802,8201,L,209,12,CatchOnly,NaN,A,NaN,3,F3112.png,F3079.png,F3079.png,F3062.png,1,1,2.085932237,0.3,NaN,0.5,2017-09-11-16:34:26
8201,10802_CF_CFS_mono_identity,10802,8201,L,210,13,CatchOnly,NaN,M,NaN,1,F1015.png,F1002.png,F1002.png,F1059.png,2,1,1.750931107,0.3,NaN,0.5,2017-09-11-16:34:29
8201,10802_CF_CFS_mono_identity,108,8201,L,211,198,Complete,I,A,S,F5,F5076.png,F5078.png,F5076.png,F5033.png,S,1,0.839073901,0.3,0.3,0.5,2017-09-11-16:34:32
8201,10802_CF_CFS_mono_identity,108,8201,L,212,199,Complete,I,M,S,M4,M4134.png,M4188.png,M4134.png,M4197.png,D,0,2.288416712,0.3,0.3,0.5,2017-09-11-16:34:36
8201,10802_CF_CFS_mono_identity,10802,8201,L,213,14,CatchOnly,NaN,M,NaN,3,F3112.png,F3079.png,F3079.png,F3062.png,2,0,2.345148537,0.3,NaN,0.5,2017-09-11-16:35:06
8201,10802_CF_CFS_mono_identity,108,8201,L,214,200,Complete,C,A,D,M4,M4197.png,M4136.png,M4134.png,M4188.png,D,1,0.762470447,0.3,0.3,0.5,2017-09-11-16:35:08
8201,10802_CF_CFS_mono_identity,108,8201,L,215,201,Complete,I,M,D,F2,F2017.png,F2067.png,F2016.png,F2067.png,D,1,0.55889735,0.3,0.3,0.5,2017-09-11-16:35:11
8201,10802_CF_CFS_mono_identity,108,8201,L,216,202,Complete,C,M,D,F3,F3062.png,F3047.png,F3112.png,F3079.png,D,1,0.771653815,0.3,0.3,0.5,2017-09-11-16:35:13
8201,10802_CF_CFS_mono_identity,108,8201,L,217,203,Complete,I,A,S,M1,M1186.png,M1125.png,M1186.png,M1119.png,D,0,0.727844975,0.3,0.3,0.5,2017-09-11-16:35:16
8201,10802_CF_CFS_mono_identity,108,8201,L,218,204,Complete,I,A,S,M2,M2201.png,M2198.png,M2201.png,M2141.png,D,0,1.317521751,0.3,0.3,0.5,2017-09-11-16:35:19
8201,10802_CF_CFS_mono_identity,108,8201,L,219,205,Complete,C,M,S,F1,F1059.png,F1046.png,F1059.png,F1046.png,S,1,0.595930205,0.3,0.3,0.5,2017-09-11-16:35:22
8201,10802_CF_CFS_mono_identity,108,8201,L,220,206,Complete,I,M,D,F1,F1046.png,F1015.png,F1059.png,F1015.png,D,1,0.647109348,0.3,0.3,0.5,2017-09-11-16:35:24
8201,10802_CF_CFS_mono_identity,108,8201,L,221,207,Complete,C,M,S,F4,F4064.png,F4018.png,F4064.png,F4018.png,S,1,0.520253642,0.3,0.3,0.5,2017-09-11-16:35:27
8201,10802_CF_CFS_mono_identity,108,8201,L,222,208,Complete,I,M,S,F2,F2017.png,F2067.png,F2017.png,F2032.png,S,1,0.92632753,0.3,0.3,0.5,2017-09-11-16:35:30
8201,10802_CF_CFS_mono_identity,108,8201,L,223,209,Complete,C,A,D,F4,F4018.png,F4040.png,F4020.png,F4064.png,D,1,0.964060428,0.3,0.3,0.5,2017-09-11-16:35:33
8201,10802_CF_CFS_mono_identity,108,8201,L,224,210,Complete,C,A,D,F2,F2016.png,F2017.png,F2067.png,F2032.png,D,1,0.648500539,0.3,0.3,0.5,2017-09-11-16:35:35
8201,10802_CF_CFS_mono_identity,10802,8201,L,225,15,CatchOnly,NaN,A,NaN,5,F5033.png,F5068.png,F5068.png,F5076.png,1,0,1.315083271,0.3,NaN,0.5,2017-09-11-16:35:38
8201,10802_CF_CFS_mono_identity,108,8201,L,226,211,Complete,C,A,S,M3,M3187.png,M3153.png,M3187.png,M3153.png,S,1,0.799004444,0.3,0.3,0.5,2017-09-11-16:35:41
8201,10802_CF_CFS_mono_identity,108,8201,L,227,212,Complete,C,M,S,M5,M5146.png,M5152.png,M5146.png,M5152.png,S,1,0.602085183,0.3,0.3,0.5,2017-09-11-16:35:43
8201,10802_CF_CFS_mono_identity,108,8201,L,228,213,Complete,I,M,S,F4,F4064.png,F4018.png,F4064.png,F4040.png,S,1,0.780906982,0.3,0.3,0.5,2017-09-11-16:35:46
8201,10802_CF_CFS_mono_identity,108,8201,L,229,214,Complete,I,A,S,F1,F1002.png,F1059.png,F1002.png,F1046.png,S,1,1.512564453,0.3,0.3,0.5,2017-09-11-16:35:50
8201,10802_CF_CFS_mono_identity,108,8201,L,230,215,Complete,I,M,S,F2,F2067.png,F2032.png,F2067.png,F2016.png,S,1,0.99894662,0.3,0.3,0.5,2017-09-11-16:35:52
8201,10802_CF_CFS_mono_identity,108,8201,L,231,216,Complete,I,A,S,M1,M1125.png,M1119.png,M1125.png,M1122.png,S,1,0.929984796,0.3,0.3,0.5,2017-09-11-16:35:55
8201,10802_CF_CFS_mono_identity,108,8201,L,232,217,Complete,C,M,D,F4,F4064.png,F4018.png,F4040.png,F4020.png,D,1,0.799695591,0.3,0.3,0.5,2017-09-11-16:35:58
8201,10802_CF_CFS_mono_identity,108,8201,L,233,218,Complete,I,A,S,F3,F3062.png,F3047.png,F3062.png,F3112.png,S,1,1.250760308,0.3,0.3,0.5,2017-09-11-16:36:01
8201,10802_CF_CFS_mono_identity,108,8201,L,234,219,Complete,I,M,D,M2,M2142.png,M2201.png,M2141.png,M2201.png,S,0,6.979233222,0.3,0.3,0.5,2017-09-11-16:36:10
8201,10802_CF_CFS_mono_identity,108,8201,L,235,220,Complete,I,A,S,M3,M3013.png,M3187.png,M3013.png,M3153.png,S,1,1.398260262,0.3,0.3,0.5,2017-09-11-16:36:13
8201,10802_CF_CFS_mono_identity,108,8201,L,236,221,Complete,I,A,D,M3,M3153.png,M3183.png,M3187.png,M3183.png,D,1,0.769263881,0.3,0.3,0.5,2017-09-11-16:36:16
8201,10802_CF_CFS_mono_identity,108,8201,L,237,222,Complete,C,A,S,M1,M1119.png,M1122.png,M1119.png,M1122.png,S,1,0.789356775,0.3,0.3,0.5,2017-09-11-16:36:19
8201,10802_CF_CFS_mono_identity,108,8201,L,238,223,Complete,C,M,D,M2,M2142.png,M2201.png,M2198.png,M2141.png,D,1,2.288655534,0.3,0.3,0.5,2017-09-11-16:36:23
8201,10802_CF_CFS_mono_identity,108,8201,L,239,224,Complete,C,M,S,M5,M5154.png,M5146.png,M5154.png,M5146.png,S,1,0.919901909,0.3,0.3,0.5,2017-09-11-16:36:26
8201,10802_CF_CFS_mono_identity,108,8201,L,240,225,Complete,I,M,D,M5,M5154.png,M5146.png,M5178.png,M5146.png,D,1,0.893981282,0.3,0.3,0.5,2017-09-11-16:36:29
8201,10802_CF_CFS_mono_identity,108,8201,L,241,226,Complete,I,M,S,M1,M1119.png,M1122.png,M1119.png,M1186.png,D,0,2.612925595,0.3,0.3,0.5,2017-09-11-16:36:33
8201,10802_CF_CFS_mono_identity,108,8201,L,242,227,Complete,C,A,S,M1,M1122.png,M1186.png,M1122.png,M1186.png,D,0,2.08703818,0.3,0.3,0.5,2017-09-11-16:36:37
8201,10802_CF_CFS_mono_identity,108,8201,L,243,228,Complete,C,A,S,F5,F5076.png,F5078.png,F5076.png,F5078.png,S,1,2.974129287,0.3,0.3,0.5,2017-09-11-16:36:42
8201,10802_CF_CFS_mono_identity,108,8201,L,244,229,Complete,C,M,D,M2,M2198.png,M2141.png,M2142.png,M2201.png,D,1,0.625978021,0.3,0.3,0.5,2017-09-11-16:36:45
8201,10802_CF_CFS_mono_identity,108,8201,L,245,230,Complete,C,A,S,F5,F5078.png,F5033.png,F5078.png,F5033.png,S,1,0.812015127,0.3,0.3,0.5,2017-09-11-16:36:47
8201,10802_CF_CFS_mono_identity,108,8201,L,246,231,Complete,C,A,D,M2,M2198.png,M2141.png,M2142.png,M2201.png,D,1,0.550509488,0.3,0.3,0.5,2017-09-11-16:36:50
8201,10802_CF_CFS_mono_identity,108,8201,L,247,232,Complete,C,A,D,F1,F1002.png,F1059.png,F1046.png,F1015.png,D,1,0.515677013,0.3,0.3,0.5,2017-09-11-16:36:52
8201,10802_CF_CFS_mono_identity,10802,8201,L,248,16,CatchOnly,NaN,A,NaN,6,M1122.png,M1186.png,M1186.png,M1125.png,2,1,2.900423756,0.3,NaN,0.5,2017-09-11-16:36:57
8201,10802_CF_CFS_mono_identity,108,8201,L,249,233,Complete,I,A,D,M3,M3013.png,M3187.png,M3183.png,M3187.png,D,1,0.567891508,0.3,0.3,0.5,2017-09-11-16:36:59
8201,10802_CF_CFS_mono_identity,108,8201,L,250,234,Complete,C,M,S,F3,F3079.png,F3062.png,F3079.png,F3062.png,S,1,0.652307325,0.3,0.3,0.5,2017-09-11-16:37:02
8201,10802_CF_CFS_mono_identity,108,8201,L,251,235,Complete,C,A,D,F5,F5076.png,F5078.png,F5033.png,F5068.png,D,1,0.661110319,0.3,0.3,0.5,2017-09-11-16:37:04
8201,10802_CF_CFS_mono_identity,108,8201,L,252,236,Complete,C,M,D,M1,M1119.png,M1122.png,M1186.png,M1125.png,D,1,0.557593065,0.3,0.3,0.5,2017-09-11-16:37:07
8201,10802_CF_CFS_mono_identity,108,8201,L,253,237,Complete,I,M,S,M5,M5146.png,M5152.png,M5146.png,M5178.png,S,1,0.778362591,0.3,0.3,0.5,2017-09-11-16:37:10
8201,10802_CF_CFS_mono_identity,108,8201,L,254,238,Complete,I,M,D,F1,F1002.png,F1059.png,F1015.png,F1059.png,D,1,1.398109031,0.3,0.3,0.5,2017-09-11-16:37:13
8201,10802_CF_CFS_mono_identity,108,8201,L,255,239,Complete,I,A,D,M1,M1125.png,M1119.png,M1186.png,M1119.png,D,1,0.641152476,0.3,0.3,0.5,2017-09-11-16:37:15
8201,10802_CF_CFS_mono_identity,108,8201,L,256,240,Complete,C,A,D,M3,M3187.png,M3153.png,M3183.png,M3013.png,D,1,0.64575682,0.3,0.3,0.5,2017-09-11-16:37:40
8201,10802_CF_CFS_mono_identity,108,8201,L,257,241,Complete,C,M,D,M2,M2201.png,M2198.png,M2141.png,M2142.png,D,1,0.774819066,0.3,0.3,0.5,2017-09-11-16:37:42
8201,10802_CF_CFS_mono_identity,108,8201,L,258,242,Complete,C,M,S,M1,M1119.png,M1122.png,M1119.png,M1122.png,S,1,2.074857558,0.3,0.3,0.5,2017-09-11-16:37:46
8201,10802_CF_CFS_mono_identity,108,8201,L,259,243,Complete,C,A,D,F1,F1059.png,F1046.png,F1015.png,F1002.png,D,1,0.538774004,0.3,0.3,0.5,2017-09-11-16:37:49
8201,10802_CF_CFS_mono_identity,108,8201,L,260,244,Complete,C,M,D,M5,M5154.png,M5146.png,M5152.png,M5178.png,D,1,0.56027554,0.3,0.3,0.5,2017-09-11-16:37:51
8201,10802_CF_CFS_mono_identity,108,8201,L,261,245,Complete,I,A,S,F1,F1015.png,F1002.png,F1015.png,F1059.png,S,1,0.836751371,0.3,0.3,0.5,2017-09-11-16:37:54
8201,10802_CF_CFS_mono_identity,108,8201,L,262,246,Complete,I,A,D,F5,F5076.png,F5078.png,F5068.png,F5078.png,D,1,0.63017315,0.3,0.3,0.5,2017-09-11-16:37:57
8201,10802_CF_CFS_mono_identity,108,8201,L,263,247,Complete,C,A,S,F3,F3079.png,F3062.png,F3079.png,F3062.png,S,1,0.655982726,0.3,0.3,0.5,2017-09-11-16:37:59
8201,10802_CF_CFS_mono_identity,108,8201,L,264,248,Complete,I,A,S,F2,F2016.png,F2017.png,F2016.png,F2067.png,S,1,0.864760301,0.3,0.3,0.5,2017-09-11-16:38:02
8201,10802_CF_CFS_mono_identity,108,8201,L,265,249,Complete,C,A,S,F5,F5068.png,F5076.png,F5068.png,F5076.png,S,1,0.52124212,0.3,0.3,0.5,2017-09-11-16:38:04
8201,10802_CF_CFS_mono_identity,108,8201,L,266,250,Complete,I,A,D,M5,M5178.png,M5154.png,M5152.png,M5154.png,D,1,0.78332463,0.3,0.3,0.5,2017-09-11-16:38:07
8201,10802_CF_CFS_mono_identity,108,8201,L,267,251,Complete,I,A,S,M2,M2198.png,M2141.png,M2198.png,M2142.png,D,0,0.611168643,0.3,0.3,0.5,2017-09-11-16:38:10
8201,10802_CF_CFS_mono_identity,108,8201,L,268,252,Complete,I,A,S,F2,F2067.png,F2032.png,F2067.png,F2016.png,S,1,0.661570415,0.3,0.3,0.5,2017-09-11-16:38:12
8201,10802_CF_CFS_mono_identity,108,8201,L,269,253,Complete,C,A,S,M1,M1125.png,M1119.png,M1125.png,M1119.png,S,1,0.558055998,0.3,0.3,0.5,2017-09-11-16:38:15
8201,10802_CF_CFS_mono_identity,108,8201,L,270,254,Complete,C,M,D,M4,M4197.png,M4136.png,M4134.png,M4188.png,D,1,1.226849825,0.3,0.3,0.5,2017-09-11-16:38:18
8201,10802_CF_CFS_mono_identity,108,8201,L,271,255,Complete,I,A,S,F4,F4020.png,F4064.png,F4020.png,F4018.png,D,0,0.756520418,0.3,0.3,0.5,2017-09-11-16:38:20
8201,10802_CF_CFS_mono_identity,108,8201,L,272,256,Complete,I,M,D,M1,M1125.png,M1119.png,M1186.png,M1119.png,D,1,0.801343397,0.3,0.3,0.5,2017-09-11-16:38:23
8201,10802_CF_CFS_mono_identity,108,8201,L,273,257,Complete,I,M,D,M1,M1186.png,M1125.png,M1122.png,M1125.png,D,1,0.684455614,0.3,0.3,0.5,2017-09-11-16:38:26
8201,10802_CF_CFS_mono_identity,108,8201,L,274,258,Complete,C,M,D,F1,F1046.png,F1015.png,F1002.png,F1059.png,D,1,0.628154501,0.3,0.3,0.5,2017-09-11-16:38:28
8201,10802_CF_CFS_mono_identity,108,8201,L,275,259,Complete,C,A,S,M5,M5146.png,M5152.png,M5146.png,M5152.png,D,0,1.12594124,0.3,0.3,0.5,2017-09-11-16:38:31
8201,10802_CF_CFS_mono_identity,108,8201,L,276,260,Complete,I,M,S,F4,F4040.png,F4020.png,F4040.png,F4064.png,S,1,0.948064466,0.3,0.3,0.5,2017-09-11-16:38:34
8201,10802_CF_CFS_mono_identity,108,8201,L,277,261,Complete,I,M,D,F5,F5076.png,F5078.png,F5068.png,F5078.png,D,1,0.649142075,0.3,0.3,0.5,2017-09-11-16:38:37
8201,10802_CF_CFS_mono_identity,108,8201,L,278,262,Complete,C,M,D,M1,M1186.png,M1125.png,M1119.png,M1122.png,D,1,0.67423313,0.3,0.3,0.5,2017-09-11-16:38:39
8201,10802_CF_CFS_mono_identity,108,8201,L,279,263,Complete,C,M,D,M5,M5178.png,M5154.png,M5146.png,M5152.png,S,0,3.410151766,0.3,0.3,0.5,2017-09-11-16:38:45
8201,10802_CF_CFS_mono_identity,108,8201,L,280,264,Complete,I,M,D,F5,F5033.png,F5068.png,F5078.png,F5068.png,D,1,0.604556549,0.3,0.3,0.5,2017-09-11-16:38:47
8201,10802_CF_CFS_mono_identity,108,8201,L,281,265,Complete,I,A,D,F2,F2067.png,F2032.png,F2017.png,F2032.png,D,1,0.615396619,0.3,0.3,0.5,2017-09-11-16:38:50
8201,10802_CF_CFS_mono_identity,108,8201,L,282,266,Complete,C,A,S,M5,M5178.png,M5154.png,M5178.png,M5154.png,S,1,0.649873596,0.3,0.3,0.5,2017-09-11-16:38:52
8201,10802_CF_CFS_mono_identity,108,8201,L,283,267,Complete,C,A,D,M3,M3183.png,M3013.png,M3187.png,M3153.png,D,1,0.675020764,0.3,0.3,0.5,2017-09-11-16:38:55
8201,10802_CF_CFS_mono_identity,108,8201,L,284,268,Complete,I,M,S,M5,M5154.png,M5146.png,M5154.png,M5152.png,D,0,2.530930505,0.3,0.3,0.5,2017-09-11-16:38:59
8201,10802_CF_CFS_mono_identity,10802,8201,L,285,17,CatchOnly,NaN,M,NaN,6,M1122.png,M1186.png,M1186.png,M1125.png,2,0,4.195541903,0.3,NaN,0.5,2017-09-11-16:39:05
8201,10802_CF_CFS_mono_identity,108,8201,L,286,269,Complete,C,A,S,F1,F1015.png,F1002.png,F1015.png,F1002.png,D,0,5.465893509,0.3,0.3,0.5,2017-09-11-16:39:13
8201,10802_CF_CFS_mono_identity,108,8201,L,287,270,Complete,I,M,D,M4,M4197.png,M4136.png,M4188.png,M4136.png,D,1,0.777702725,0.3,0.3,0.5,2017-09-11-16:39:15
8201,10802_CF_CFS_mono_identity,108,8201,L,288,271,Complete,I,A,D,M1,M1122.png,M1186.png,M1119.png,M1186.png,D,1,0.757432596,0.3,0.3,0.5,2017-09-11-16:39:18
8201,10802_CF_CFS_mono_identity,108,8201,L,289,272,Complete,I,A,D,M4,M4134.png,M4188.png,M4136.png,M4188.png,D,1,0.674293006,0.3,0.3,0.5,2017-09-11-16:39:21
8201,10802_CF_CFS_mono_identity,108,8201,L,290,273,Complete,I,M,D,M5,M5146.png,M5152.png,M5154.png,M5152.png,D,1,6.145887351,0.3,0.3,0.5,2017-09-11-16:39:29
8201,10802_CF_CFS_mono_identity,108,8201,L,291,274,Complete,C,M,D,F5,F5068.png,F5076.png,F5078.png,F5033.png,S,0,0.830339877,0.3,0.3,0.5,2017-09-11-16:39:31
8201,10802_CF_CFS_mono_identity,108,8201,L,292,275,Complete,C,M,S,F3,F3047.png,F3112.png,F3047.png,F3112.png,S,1,0.536176384,0.3,0.3,0.5,2017-09-11-16:39:34
8201,10802_CF_CFS_mono_identity,108,8201,L,293,276,Complete,I,A,S,F4,F4040.png,F4020.png,F4040.png,F4064.png,S,1,0.397770642,0.3,0.3,0.5,2017-09-11-16:39:36
8201,10802_CF_CFS_mono_identity,108,8201,L,294,277,Complete,C,A,S,F3,F3047.png,F3112.png,F3047.png,F3112.png,S,1,0.864828731,0.3,0.3,0.5,2017-09-11-16:39:39
8201,10802_CF_CFS_mono_identity,108,8201,L,295,278,Complete,C,A,S,M4,M4134.png,M4188.png,M4134.png,M4188.png,S,1,5.68870583,0.3,0.3,0.5,2017-09-11-16:39:46
