Experiment,ExperimentNum,Participant,DominantEye,Trial,SubTrial,TrialType,Condition,Congruency,Alignment,SameDifferent,thisResponse,isCorrect,reactionTime,FaceGroup,StudyUpper,StudyLower,TargetUpper,TargetLower,studyDuration,targetDuration,maskDuration,trialDuration,trialEndTime
111_CF_CFS_test,111,1101,Left,1,1,CF,CFS,congruent,misaligned,different,2,1,11.6209374334289,M2,M2142.png,M2201.png,M2141.png,M2198.png,0.3,0.3,0.5,13.5423348738013,2018-08-15-12:08:11
111_CF_CFS_test,111,1101,Left,2,2,CF,CFS,congruent,aligned,same,1,1,2.94960144518473,M3,M3183.png,M3187.png,M3183.png,M3187.png,0.3,0.3,0.5,4.85739497279064,2018-08-15-12:08:16
111_CF_CFS_test,111,1101,Left,3,3,CF,CFS,incongruent,aligned,different,2,1,1.67203059506392,F2,F2067.png,F2016.png,F2032.png,F2016.png,0.3,0.3,0.5,3.58825672880675,2018-08-15-12:08:20
111_CF_CFS_test,111,1101,Left,4,4,CF,CFS,incongruent,misaligned,same,1,1,1.26962457452237,M3,M3183.png,M3187.png,M3183.png,M3013.png,0.3,0.3,0.5,3.18542954362329,2018-08-15-12:08:23
111_CF_CFS_test,111,1101,Left,5,5,CF,CFS,congruent,aligned,same,2,0,1.51598692160269,F4,F4018.png,F4064.png,F4018.png,F4064.png,0.3,0.3,0.5,3.43171422266096,2018-08-15-12:08:27
111_CF_CFS_test,111,1101,Left,6,6,CF,CFS,congruent,misaligned,same,1,1,1.19094616298753,F2,F2017.png,F2032.png,F2017.png,F2032.png,0.3,0.3,0.5,3.10376142567065,2018-08-15-12:08:30
111_CF_CFS_test,111,1101,Left,7,7,CF,CFS,congruent,misaligned,different,1,0,1.1616427289996,M3,M3183.png,M3187.png,M3013.png,M3153.png,0.3,0.3,0.5,3.0763021800085,2018-08-15-12:08:33
111_CF_CFS_test,111,1101,Left,8,8,CF,CFS,congruent,misaligned,same,2,0,1.89368866605446,M2,M2201.png,M2141.png,M2201.png,M2141.png,0.3,0.3,0.5,3.80069080078465,2018-08-15-12:08:37
111_CF_CFS_test,111,1101,Left,9,9,CF,CFS,congruent,misaligned,different,2,1,0.924837314818433,F4,F4064.png,F4040.png,F4020.png,F4018.png,0.3,0.3,0.5,2.8302885247781,2018-08-15-12:08:40
111_CF_CFS_test,111,1101,Left,10,10,CF,CFS,incongruent,aligned,same,1,1,1.06658457205867,F4,F4018.png,F4064.png,F4018.png,F4040.png,0.3,0.3,0.5,2.97615899024686,2018-08-15-12:08:43
111_CF_CFS_test,111,1101,Left,11,11,CF,CFS,congruent,misaligned,different,1,0,1.17069738574628,F2,F2016.png,F2017.png,F2032.png,F2067.png,0.3,0.3,0.5,3.08465098137185,2018-08-15-12:08:46
111_CF_CFS_test,111,1101,Left,12,12,CF,CFS,congruent,misaligned,same,1,1,1.95836322155901,M2,M2198.png,M2142.png,M2198.png,M2142.png,0.3,0.3,0.5,3.86814258757749,2018-08-15-12:08:50
111_CF_CFS_test,111,1101,Left,13,13,CF,CFS,congruent,aligned,different,1,0,1.80247182680114,M1,M1186.png,M1125.png,M1119.png,M1122.png,0.3,0.3,0.5,3.71847200748289,2018-08-15-12:08:53
111_CF_CFS_test,111,1101,Left,14,14,CF,CFS,incongruent,aligned,different,1,0,1.02868002711466,M4,M4136.png,M4188.png,M4134.png,M4188.png,0.3,0.3,0.5,2.94334499355591,2018-08-15-12:08:56
111_CF_CFS_test,111,1101,Left,15,15,CF,CFS,incongruent,aligned,different,2,1,1.36605490888451,M3,M3013.png,M3153.png,M3187.png,M3153.png,0.3,0.3,0.5,3.27619503505139,2018-08-15-12:09:00
111_CF_CFS_test,111,1101,Left,16,16,CF,CFS,incongruent,aligned,same,1,1,1.58598909425473,M1,M1186.png,M1125.png,M1186.png,M1119.png,0.3,0.3,0.5,3.50194596695746,2018-08-15-12:09:03
111_CF_CFS_test,111,1101,Left,17,17,CF,CFS,congruent,misaligned,same,2,0,1.35661776950656,M3,M3153.png,M3183.png,M3153.png,M3183.png,0.3,0.3,0.5,3.27691770780029,2018-08-15-12:09:06
111_CF_CFS_test,111,1101,Left,18,18,CF,CFS,congruent,aligned,same,1,1,3.08083477606579,F5,F5033.png,F5068.png,F5033.png,F5068.png,0.3,0.3,0.5,4.99424649919138,2018-08-15-12:09:11
111_CF_CFS_test,111,1101,Left,19,19,CF,CFS,incongruent,misaligned,same,1,1,1.41588015578873,F3,F3062.png,F3079.png,F3062.png,F3047.png,0.3,0.3,0.5,3.32725104740666,2018-08-15-12:09:15
111_CF_CFS_test,111,1101,Left,20,20,CF,CFS,congruent,aligned,same,2,0,1.96184596608055,F1,F1002.png,F1046.png,F1002.png,F1046.png,0.3,0.3,0.5,3.87764340788226,2018-08-15-12:09:19
111_CF_CFS_test,111,1101,Left,21,21,CF,CFS,incongruent,aligned,same,1,1,1.63776425382503,F4,F4064.png,F4040.png,F4064.png,F4020.png,0.3,0.3,0.5,3.55262849661358,2018-08-15-12:09:22
111_CF_CFS_test,111,1101,Left,22,22,CF,CFS,incongruent,aligned,different,2,1,1.99857197142092,F3,F3079.png,F3047.png,F3062.png,F3047.png,0.3,0.3,0.5,3.91109555529556,2018-08-15-12:09:26
111_CF_CFS_test,111,1101,Left,23,23,CF,CFS,incongruent,aligned,different,2,1,1.68919692127747,M1,M1119.png,M1122.png,M1125.png,M1122.png,0.3,0.3,0.5,3.60284675881258,2018-08-15-12:09:30
111_CF_CFS_test,111,1101,Left,24,24,CF,CFS,congruent,misaligned,different,2,1,2.09599735995471,M5,M5154.png,M5146.png,M5178.png,M5152.png,0.3,0.3,0.5,4.01115055243099,2018-08-15-12:09:34
111_CF_CFS_test,111,1101,Left,25,25,CF,CFS,incongruent,aligned,same,1,1,0.950612241159433,M2,M2198.png,M2142.png,M2198.png,M2201.png,0.3,0.3,0.5,2.86107855934324,2018-08-15-12:09:36
111_CF_CFS_test,111,1101,Left,26,26,CF,CFS,congruent,aligned,same,1,1,1.41931415896397,M2,M2142.png,M2201.png,M2142.png,M2201.png,0.3,0.3,0.5,3.33643826125763,2018-08-15-12:09:40
111_CF_CFS_test,111,1101,Left,27,27,CF,CFS,congruent,misaligned,different,2,1,0.924996072403701,M5,M5152.png,M5154.png,M5146.png,M5178.png,0.3,0.3,0.5,2.83624223533434,2018-08-15-12:09:43
111_CF_CFS_test,111,1101,Left,28,28,CF,CFS,congruent,aligned,different,2,1,1.20267745893216,F1,F1015.png,F1059.png,F1002.png,F1046.png,0.3,0.3,0.5,3.11967676953691,2018-08-15-12:09:46
111_CF_CFS_test,111,1101,Left,29,29,CF,CFS,congruent,aligned,different,2,1,1.50898721756266,M4,M4136.png,M4188.png,M4197.png,M4134.png,0.3,0.3,0.5,3.4196387238494,2018-08-15-12:09:49
111_CF_CFS_test,111,1101,Left,30,30,CF,CFS,congruent,misaligned,same,2,0,0.995308627093436,M1,M1186.png,M1125.png,M1186.png,M1125.png,0.3,0.3,0.5,2.91133833670619,2018-08-15-12:09:52
111_CF_CFS_test,111,1101,Left,31,31,CF,CFS,congruent,aligned,different,2,1,0.958055286587751,F5,F5076.png,F5033.png,F5068.png,F5078.png,0.3,0.3,0.5,2.86970621292994,2018-08-15-12:09:55
111_CF_CFS_test,111,1101,Left,32,32,CF,CFS,incongruent,misaligned,different,1,0,1.81039362500496,F2,F2067.png,F2016.png,F2032.png,F2016.png,0.3,0.3,0.5,3.72810300082665,2018-08-15-12:09:59
111_CF_CFS_test,111,1101,Left,33,33,CF,CFS,incongruent,aligned,same,1,1,1.54830777615643,F1,F1059.png,F1002.png,F1059.png,F1046.png,0.3,0.3,0.5,3.46128169239046,2018-08-15-12:10:02
111_CF_CFS_test,111,1101,Left,34,34,CF,CFS,incongruent,misaligned,same,1,1,1.56887475286794,M5,M5154.png,M5146.png,M5154.png,M5178.png,0.3,0.3,0.5,3.48639868340706,2018-08-15-12:10:06
111_CF_CFS_test,111,1101,Left,35,35,CF,CFS,congruent,misaligned,different,2,1,1.34851477688699,M3,M3187.png,M3013.png,M3153.png,M3183.png,0.3,0.3,0.5,3.26146904550615,2018-08-15-12:10:09
111_CF_CFS_test,111,1101,Left,36,36,CF,CFS,congruent,misaligned,same,2,0,0.953162936215904,F1,F1002.png,F1046.png,F1002.png,F1046.png,0.3,0.3,0.5,2.86973641517716,2018-08-15-12:10:12
111_CF_CFS_test,111,1101,Left,37,37,CF,CFS,congruent,aligned,different,1,0,0.997540419316465,F4,F4018.png,F4064.png,F4040.png,F4020.png,0.3,0.3,0.5,2.91142499369744,2018-08-15-12:10:15
111_CF_CFS_test,111,1101,Left,38,38,CF,CFS,congruent,aligned,different,2,1,0.960285129944623,M2,M2141.png,M2198.png,M2142.png,M2201.png,0.3,0.3,0.5,2.8782284323097,2018-08-15-12:10:18
111_CF_CFS_test,111,1101,Left,39,39,CF,CFS,incongruent,aligned,same,1,1,1.18034430408716,F3,F3047.png,F3112.png,F3047.png,F3062.png,0.3,0.3,0.5,3.09471977062276,2018-08-15-12:10:21
111_CF_CFS_test,111,1101,Left,40,40,CF,CFS,congruent,misaligned,different,1,0,1.17573109607156,F4,F4020.png,F4018.png,F4064.png,F4040.png,0.3,0.3,0.5,3.08657831214032,2018-08-15-12:10:24
111_CF_CFS_test,111,1101,Left,41,41,CF,CFS,incongruent,aligned,same,1,1,5.3549792133108,M5,M5178.png,M5152.png,M5178.png,M5154.png,0.3,0.3,0.5,7.26696304058805,2018-08-15-12:11:03
111_CF_CFS_test,111,1101,Left,42,42,CF,CFS,incongruent,misaligned,different,2,1,1.19086908619556,F3,F3079.png,F3047.png,F3062.png,F3047.png,0.3,0.3,0.5,3.10201440793526,2018-08-15-12:11:06
111_CF_CFS_test,111,1101,Left,43,43,CF,CFS,incongruent,aligned,same,2,0,1.44990681403033,M3,M3013.png,M3153.png,M3013.png,M3183.png,0.3,0.3,0.5,3.36110097016626,2018-08-15-12:11:09
111_CF_CFS_test,111,1101,Left,44,44,CF,CFS,congruent,misaligned,different,2,1,0.954553723817753,F1,F1002.png,F1046.png,F1015.png,F1059.png,0.3,0.3,0.5,2.86828423766428,2018-08-15-12:11:12
111_CF_CFS_test,111,1101,Left,45,45,CF,CFS,congruent,misaligned,different,2,1,0.950995364152732,M1,M1122.png,M1186.png,M1125.png,M1119.png,0.3,0.3,0.5,2.8606505297339,2018-08-15-12:11:15
111_CF_CFS_test,111,1101,Left,46,46,CF,CFS,congruent,misaligned,same,1,1,0.91564017861856,M3,M3013.png,M3153.png,M3013.png,M3153.png,0.3,0.3,0.5,2.82772783338669,2018-08-15-12:11:18
111_CF_CFS_test,111,1101,Left,47,47,CF,CFS,congruent,misaligned,same,1,1,2.14571496370081,M4,M4134.png,M4136.png,M4134.png,M4136.png,0.3,0.3,0.5,4.06130388012116,2018-08-15-12:11:22
111_CF_CFS_test,111,1101,Left,48,48,CF,CFS,congruent,aligned,different,2,1,1.60650474847171,M1,M1125.png,M1119.png,M1122.png,M1186.png,0.3,0.3,0.5,3.51252285989449,2018-08-15-12:11:25
111_CF_CFS_test,111,1101,Left,49,49,CF,CFS,congruent,aligned,different,1,0,2.35266912076258,M5,M5154.png,M5146.png,M5178.png,M5152.png,0.3,0.3,0.5,4.27018365720187,2018-08-15-12:11:30
111_CF_CFS_test,111,1101,Left,50,50,CF,CFS,incongruent,aligned,same,2,0,2.58875636216135,M4,M4136.png,M4188.png,M4136.png,M4197.png,0.3,0.3,0.5,4.50343877825117,2018-08-15-12:11:34
111_CF_CFS_test,111,1101,Left,51,51,CF,CFS,congruent,misaligned,different,1,0,2.26389219396242,M1,M1125.png,M1119.png,M1122.png,M1186.png,0.3,0.3,0.5,4.17207611468211,2018-08-15-12:11:38
111_CF_CFS_test,111,1101,Left,52,52,CF,CFS,congruent,misaligned,same,2,0,1.87198238196697,M3,M3187.png,M3013.png,M3187.png,M3013.png,0.3,0.3,0.5,3.77846448977925,2018-08-15-12:11:42
111_CF_CFS_test,111,1101,Left,53,53,CF,CFS,incongruent,aligned,different,1,0,0.919636687325692,M3,M3153.png,M3183.png,M3013.png,M3183.png,0.3,0.3,0.5,2.83669151927461,2018-08-15-12:11:45
111_CF_CFS_test,111,1101,Left,54,54,CF,CFS,congruent,aligned,different,2,1,1.97326683895426,M2,M2201.png,M2141.png,M2198.png,M2142.png,0.3,0.3,0.5,3.88668964496219,2018-08-15-12:11:49
111_CF_CFS_test,111,1101,Left,55,55,CF,CFS,congruent,aligned,different,2,1,2.00114428492634,M3,M3183.png,M3187.png,M3013.png,M3153.png,0.3,0.3,0.5,3.90333613326038,2018-08-15-12:11:53
111_CF_CFS_test,111,1101,Left,56,56,CF,CFS,congruent,misaligned,same,1,1,1.08405416914638,M4,M4197.png,M4134.png,M4197.png,M4134.png,0.3,0.3,0.5,2.9866243313104,2018-08-15-12:11:56
111_CF_CFS_test,111,1101,Left,57,57,CF,CFS,congruent,misaligned,different,2,1,1.45177871650412,F3,F3079.png,F3047.png,F3112.png,F3062.png,0.3,0.3,0.5,3.36187286049335,2018-08-15-12:11:59
111_CF_CFS_test,111,1101,Left,58,58,CF,CFS,congruent,misaligned,different,2,1,1.45235744815045,M2,M2201.png,M2141.png,M2198.png,M2142.png,0.3,0.3,0.5,3.36178091520151,2018-08-15-12:12:03
111_CF_CFS_test,111,1101,Left,59,59,CF,CFS,incongruent,aligned,same,2,0,1.252701837117,F4,F4020.png,F4018.png,F4020.png,F4064.png,0.3,0.3,0.5,3.17002013552519,2018-08-15-12:12:06
111_CF_CFS_test,111,1101,Left,60,60,CF,CFS,incongruent,misaligned,same,1,1,0.829357681134752,M4,M4188.png,M4197.png,M4188.png,M4134.png,0.3,0.3,0.5,2.73865901163117,2018-08-15-12:12:08
111_CF_CFS_test,111,1101,Left,61,61,CF,CFS,incongruent,misaligned,different,2,1,1.55911287213803,F5,F5078.png,F5076.png,F5068.png,F5076.png,0.3,0.3,0.5,3.4618678993188,2018-08-15-12:12:12
111_CF_CFS_test,111,1101,Left,62,62,CF,CFS,congruent,aligned,same,1,1,0.939438906842497,F2,F2016.png,F2017.png,F2016.png,F2017.png,0.3,0.3,0.5,2.8534910416588,2018-08-15-12:12:15
111_CF_CFS_test,111,1101,Left,63,63,CF,CFS,congruent,misaligned,same,1,1,1.19277593998277,F5,F5078.png,F5076.png,F5078.png,F5076.png,0.3,0.3,0.5,3.10347773133026,2018-08-15-12:12:18
111_CF_CFS_test,111,1101,Left,64,64,CF,CFS,congruent,misaligned,same,1,1,1.05982779449596,F2,F2032.png,F2067.png,F2032.png,F2067.png,0.3,0.3,0.5,2.97003484797415,2018-08-15-12:12:21
111_CF_CFS_test,111,1101,Left,65,65,CF,CFS,incongruent,misaligned,different,2,1,0.812214889283041,F4,F4018.png,F4064.png,F4020.png,F4064.png,0.3,0.3,0.5,2.72013143482673,2018-08-15-12:12:24
111_CF_CFS_test,111,1101,Left,66,66,CF,CFS,congruent,misaligned,same,1,1,1.33461527659711,F2,F2067.png,F2016.png,F2067.png,F2016.png,0.3,0.3,0.5,3.23735011692952,2018-08-15-12:12:27
111_CF_CFS_test,111,1101,Left,67,67,CF,CFS,incongruent,misaligned,same,1,1,0.980222840848455,M1,M1122.png,M1186.png,M1122.png,M1125.png,0.3,0.3,0.5,2.88678941867011,2018-08-15-12:12:30
111_CF_CFS_test,111,1101,Left,68,68,CF,CFS,incongruent,misaligned,same,2,0,1.67194435130341,F5,F5033.png,F5068.png,F5033.png,F5078.png,0.3,0.3,0.5,3.57873615685367,2018-08-15-12:12:33
111_CF_CFS_test,111,1101,Left,69,69,CF,CFS,congruent,aligned,different,2,1,1.50391929223997,M4,M4197.png,M4134.png,M4136.png,M4188.png,0.3,0.3,0.5,3.41183202211732,2018-08-15-12:12:37
111_CF_CFS_test,111,1101,Left,70,70,CF,CFS,incongruent,aligned,same,1,1,1.16623506586666,F1,F1002.png,F1046.png,F1002.png,F1015.png,0.3,0.3,0.5,3.0784960456017,2018-08-15-12:12:40
111_CF_CFS_test,111,1101,Left,71,71,CF,CFS,congruent,misaligned,same,1,1,1.02653334816887,F5,F5068.png,F5078.png,F5068.png,F5078.png,0.3,0.3,0.5,2.93693662869373,2018-08-15-12:12:43
111_CF_CFS_test,111,1101,Left,72,72,CF,CFS,incongruent,misaligned,different,2,1,2.21213687909039,F2,F2017.png,F2032.png,F2016.png,F2032.png,0.3,0.3,0.5,4.12033868465778,2018-08-15-12:12:47
111_CF_CFS_test,111,1101,Left,73,73,CF,CFS,incongruent,aligned,same,1,1,0.862091800832332,M5,M5152.png,M5154.png,M5152.png,M5146.png,0.3,0.3,0.5,2.77846576532966,2018-08-15-12:12:50
111_CF_CFS_test,111,1101,Left,74,74,CF,CFS,incongruent,aligned,different,2,1,0.974468904840705,M1,M1125.png,M1119.png,M1186.png,M1119.png,0.3,0.3,0.5,2.87857439794425,2018-08-15-12:12:53
111_CF_CFS_test,111,1101,Left,75,75,CF,CFS,congruent,aligned,different,1,0,2.06646721461948,M5,M5178.png,M5152.png,M5154.png,M5146.png,0.3,0.3,0.5,3.97028222240078,2018-08-15-12:12:56
111_CF_CFS_test,111,1101,Left,76,76,CF,CFS,incongruent,misaligned,different,2,1,1.1226653468234,M2,M2141.png,M2198.png,M2201.png,M2198.png,0.3,0.3,0.5,3.0285595999585,2018-08-15-12:13:00
111_CF_CFS_test,111,1101,Left,77,77,CF,CFS,incongruent,aligned,different,1,0,2.40858404584242,F5,F5078.png,F5076.png,F5068.png,F5076.png,0.3,0.3,0.5,4.31204761358958,2018-08-15-12:13:04
111_CF_CFS_test,111,1101,Left,78,78,CF,CFS,congruent,misaligned,different,1,0,1.52308752983572,F1,F1059.png,F1002.png,F1046.png,F1015.png,0.3,0.3,0.5,3.42866977224776,2018-08-15-12:13:07
111_CF_CFS_test,111,1101,Left,79,79,CF,CFS,congruent,misaligned,same,1,1,2.12900025347608,M5,M5178.png,M5152.png,M5178.png,M5152.png,0.3,0.3,0.5,4.03706989610646,2018-08-15-12:13:11
111_CF_CFS_test,111,1101,Left,80,80,CF,CFS,congruent,aligned,different,2,1,0.766583768700912,F2,F2016.png,F2017.png,F2032.png,F2067.png,0.3,0.3,0.5,2.67015340293801,2018-08-15-12:13:14
111_CF_CFS_test,111,1101,Left,81,81,CF,CFS,congruent,misaligned,different,2,1,1.4780339364288,M4,M4197.png,M4134.png,M4136.png,M4188.png,0.3,0.3,0.5,3.39293768251628,2018-08-15-12:13:33
111_CF_CFS_test,111,1101,Left,82,82,CF,CFS,congruent,misaligned,different,1,0,1.28577097364996,F4,F4040.png,F4020.png,F4018.png,F4064.png,0.3,0.3,0.5,3.19519655660315,2018-08-15-12:13:36
111_CF_CFS_test,111,1101,Left,83,83,CF,CFS,congruent,aligned,same,2,0,1.46905934277493,M1,M1186.png,M1125.png,M1186.png,M1125.png,0.3,0.3,0.5,3.38142194105058,2018-08-15-12:13:40
111_CF_CFS_test,111,1101,Left,84,84,CF,CFS,congruent,misaligned,different,2,1,1.12496698965515,F5,F5076.png,F5033.png,F5068.png,F5078.png,0.3,0.3,0.5,3.02853325441083,2018-08-15-12:13:43
111_CF_CFS_test,111,1101,Left,85,85,CF,CFS,congruent,aligned,different,2,1,1.34696865319893,F4,F4040.png,F4020.png,F4018.png,F4064.png,0.3,0.3,0.5,3.2537124126884,2018-08-15-12:13:46
111_CF_CFS_test,111,1101,Left,86,86,CF,CFS,incongruent,aligned,different,2,1,1.49561257532241,F3,F3062.png,F3079.png,F3112.png,F3079.png,0.3,0.3,0.5,3.41193145367561,2018-08-15-12:13:49
111_CF_CFS_test,111,1101,Left,87,87,CF,CFS,incongruent,aligned,different,2,1,1.89451389074384,M5,M5146.png,M5178.png,M5154.png,M5178.png,0.3,0.3,0.5,3.80357957296292,2018-08-15-12:13:53
111_CF_CFS_test,111,1101,Left,88,88,CF,CFS,incongruent,misaligned,same,1,1,1.21343670681836,F5,F5068.png,F5078.png,F5068.png,F5076.png,0.3,0.3,0.5,3.12113101093382,2018-08-15-12:13:56
111_CF_CFS_test,111,1101,Left,89,89,CF,CFS,incongruent,aligned,different,2,1,1.3197919713939,M2,M2142.png,M2201.png,M2198.png,M2201.png,0.3,0.3,0.5,3.22877002218775,2018-08-15-12:13:59
111_CF_CFS_test,111,1101,Left,90,90,CF,CFS,congruent,misaligned,same,1,1,1.20576638884086,M5,M5152.png,M5154.png,M5152.png,M5154.png,0.3,0.3,0.5,3.11195654968105,2018-08-15-12:14:03
111_CF_CFS_test,111,1101,Left,91,91,CF,CFS,congruent,misaligned,same,1,1,1.35252237945861,F1,F1059.png,F1002.png,F1059.png,F1002.png,0.3,0.3,0.5,3.26195254444337,2018-08-15-12:14:06
111_CF_CFS_test,111,1101,Left,92,92,CF,CFS,incongruent,misaligned,same,1,1,1.22917868468357,M5,M5152.png,M5154.png,M5152.png,M5146.png,0.3,0.3,0.5,3.13682024568789,2018-08-15-12:14:09
111_CF_CFS_test,111,1101,Left,93,93,CF,CFS,incongruent,aligned,different,1,0,0.950862609965952,M2,M2201.png,M2141.png,M2142.png,M2141.png,0.3,0.3,0.5,2.85347975070999,2018-08-15-12:14:12
111_CF_CFS_test,111,1101,Left,94,94,CF,CFS,incongruent,aligned,same,1,1,0.795921707817797,M4,M4188.png,M4197.png,M4188.png,M4134.png,0.3,0.3,0.5,2.7035687432226,2018-08-15-12:14:15
111_CF_CFS_test,111,1101,Left,95,95,CF,CFS,incongruent,aligned,same,1,1,0.950641290953172,F5,F5033.png,F5068.png,F5033.png,F5078.png,0.3,0.3,0.5,2.86195548971136,2018-08-15-12:14:17
111_CF_CFS_test,111,1101,Left,96,96,CF,CFS,congruent,aligned,same,1,1,0.843370049881742,M1,M1122.png,M1186.png,M1122.png,M1186.png,0.3,0.3,0.5,2.75357306864134,2018-08-15-12:14:20
111_CF_CFS_test,111,1101,Left,97,97,CF,CFS,incongruent,misaligned,same,1,1,0.740859171357442,M3,M3153.png,M3183.png,M3153.png,M3187.png,0.3,0.3,0.5,2.64513437084679,2018-08-15-12:14:23
111_CF_CFS_test,111,1101,Left,98,98,CF,CFS,congruent,aligned,different,1,0,1.6261683672019,M5,M5152.png,M5154.png,M5146.png,M5178.png,0.3,0.3,0.5,3.53694997254206,2018-08-15-12:14:26
111_CF_CFS_test,111,1101,Left,99,99,CF,CFS,incongruent,misaligned,same,1,1,0.779911826526586,M2,M2142.png,M2201.png,M2142.png,M2141.png,0.3,0.3,0.5,2.68685784866375,2018-08-15-12:14:29
111_CF_CFS_test,111,1101,Left,100,100,CF,CFS,congruent,aligned,different,2,1,0.783596439529902,M2,M2142.png,M2201.png,M2141.png,M2198.png,0.3,0.3,0.5,2.6869228571577,2018-08-15-12:14:32
111_CF_CFS_test,111,1101,Left,101,101,CF,CFS,congruent,aligned,same,1,1,1.36331242084179,F4,F4020.png,F4018.png,F4020.png,F4018.png,0.3,0.3,0.5,3.27029813237459,2018-08-15-12:14:35
111_CF_CFS_test,111,1101,Left,102,102,CF,CFS,congruent,aligned,same,1,1,0.879398430501169,F4,F4064.png,F4040.png,F4064.png,F4040.png,0.3,0.3,0.5,2.79510554471108,2018-08-15-12:14:38
111_CF_CFS_test,111,1101,Left,103,103,CF,CFS,congruent,misaligned,same,1,1,1.51903216034952,M3,M3183.png,M3187.png,M3183.png,M3187.png,0.3,0.3,0.5,3.42851808479372,2018-08-15-12:14:41
111_CF_CFS_test,111,1101,Left,104,104,CF,CFS,congruent,misaligned,same,1,1,0.804695128275853,F4,F4020.png,F4018.png,F4020.png,F4018.png,0.3,0.3,0.5,2.72013109267664,2018-08-15-12:14:44
111_CF_CFS_test,111,1101,Left,105,105,CF,CFS,incongruent,aligned,same,2,0,0.671546773040063,M2,M2201.png,M2141.png,M2201.png,M2198.png,0.3,0.3,0.5,2.57846987112953,2018-08-15-12:14:47
111_CF_CFS_test,111,1101,Left,106,106,CF,CFS,incongruent,aligned,different,2,1,1.12759025345804,F2,F2017.png,F2032.png,F2016.png,F2032.png,0.3,0.3,0.5,3.03706807033905,2018-08-15-12:14:50
111_CF_CFS_test,111,1101,Left,107,107,CF,CFS,congruent,misaligned,different,2,1,0.796983057018224,M1,M1119.png,M1122.png,M1186.png,M1125.png,0.3,0.3,0.5,2.71170477932174,2018-08-15-12:14:52
111_CF_CFS_test,111,1101,Left,108,108,CF,CFS,incongruent,aligned,same,1,1,1.00802423647747,M1,M1119.png,M1122.png,M1119.png,M1186.png,0.3,0.3,0.5,2.91194941654885,2018-08-15-12:14:55
111_CF_CFS_test,111,1101,Left,109,109,CF,CFS,incongruent,misaligned,different,1,0,1.81067766149408,M3,M3153.png,M3183.png,M3013.png,M3183.png,0.3,0.3,0.5,3.72040711465161,2018-08-15-12:14:59
111_CF_CFS_test,111,1101,Left,110,110,CF,CFS,congruent,misaligned,same,2,0,1.14895728082865,M4,M4136.png,M4188.png,M4136.png,M4188.png,0.3,0.3,0.5,3.05355091790261,2018-08-15-12:15:02
111_CF_CFS_test,111,1101,Left,111,111,CF,CFS,incongruent,aligned,same,1,1,1.72993320338901,M2,M2141.png,M2198.png,M2141.png,M2142.png,0.3,0.3,0.5,3.63702453522637,2018-08-15-12:15:06
111_CF_CFS_test,111,1101,Left,112,112,CF,CFS,congruent,aligned,different,2,1,0.759594619292329,F5,F5068.png,F5078.png,F5076.png,F5033.png,0.3,0.3,0.5,2.67017461623527,2018-08-15-12:15:08
111_CF_CFS_test,111,1101,Left,113,113,CF,CFS,congruent,misaligned,same,1,1,1.04404612723192,F5,F5033.png,F5068.png,F5033.png,F5068.png,0.3,0.3,0.5,2.95390511016012,2018-08-15-12:15:11
111_CF_CFS_test,111,1101,Left,114,114,CF,CFS,incongruent,aligned,different,2,1,0.844765326464767,F1,F1046.png,F1015.png,F1002.png,F1015.png,0.3,0.3,0.5,2.76164425229854,2018-08-15-12:15:14
111_CF_CFS_test,111,1101,Left,115,115,CF,CFS,incongruent,aligned,different,2,1,2.36540261499431,F1,F1059.png,F1002.png,F1015.png,F1002.png,0.3,0.3,0.5,4.27836558242961,2018-08-15-12:15:18
111_CF_CFS_test,111,1101,Left,116,116,CF,CFS,congruent,misaligned,different,2,1,1.36924290623301,M2,M2198.png,M2142.png,M2201.png,M2141.png,0.3,0.3,0.5,3.28696508666962,2018-08-15-12:15:22
111_CF_CFS_test,111,1101,Left,117,117,CF,CFS,incongruent,misaligned,different,2,1,1.50887841387157,M4,M4188.png,M4197.png,M4136.png,M4197.png,0.3,0.3,0.5,3.42033635664848,2018-08-15-12:15:25
111_CF_CFS_test,111,1101,Left,118,118,CF,CFS,incongruent,misaligned,different,1,0,0.81155932994443,M4,M4134.png,M4136.png,M4197.png,M4136.png,0.3,0.3,0.5,2.72023834166794,2018-08-15-12:15:28
111_CF_CFS_test,111,1101,Left,119,119,CF,CFS,incongruent,misaligned,same,2,0,1.48592938908496,M2,M2141.png,M2198.png,M2141.png,M2142.png,0.3,0.3,0.5,3.39545398746122,2018-08-15-12:15:31
111_CF_CFS_test,111,1101,Left,120,120,CF,CFS,incongruent,misaligned,different,2,1,0.900920005621629,M1,M1186.png,M1125.png,M1122.png,M1125.png,0.3,0.3,0.5,2.81089542357313,2018-08-15-12:15:34
111_CF_CFS_test,111,1101,Left,121,121,CF,CFS,congruent,aligned,same,2,0,1.89809106865596,F5,F5076.png,F5033.png,F5076.png,F5033.png,0.3,0.3,0.5,3.80627297750834,2018-08-15-12:15:54
111_CF_CFS_test,111,1101,Left,122,122,CF,CFS,congruent,aligned,different,2,1,2.74489790957796,M5,M5146.png,M5178.png,M5152.png,M5154.png,0.3,0.3,0.5,4.65371822923771,2018-08-15-12:15:59
111_CF_CFS_test,111,1101,Left,123,123,CF,CFS,congruent,misaligned,same,2,0,0.717795526332338,F3,F3079.png,F3047.png,F3079.png,F3047.png,0.3,0.3,0.5,2.62124682869762,2018-08-15-12:16:02
111_CF_CFS_test,111,1101,Left,124,124,CF,CFS,congruent,misaligned,same,1,1,1.10820232553579,F3,F3112.png,F3062.png,F3112.png,F3062.png,0.3,0.3,0.5,3.01199817291945,2018-08-15-12:16:05
111_CF_CFS_test,111,1101,Left,125,125,CF,CFS,incongruent,aligned,same,1,1,1.10687249264538,M1,M1125.png,M1119.png,M1125.png,M1122.png,0.3,0.3,0.5,3.01202280771759,2018-08-15-12:16:08
111_CF_CFS_test,111,1101,Left,126,126,CF,CFS,congruent,aligned,different,2,1,0.761659836497529,F2,F2067.png,F2016.png,F2017.png,F2032.png,0.3,0.3,0.5,2.67023928258004,2018-08-15-12:16:10
111_CF_CFS_test,111,1101,Left,127,127,CF,CFS,incongruent,misaligned,same,1,1,1.0700115461359,M5,M5146.png,M5178.png,M5146.png,M5152.png,0.3,0.3,0.5,2.97988808274567,2018-08-15-12:16:13
111_CF_CFS_test,111,1101,Left,128,128,CF,CFS,congruent,aligned,different,2,1,1.27774960980605,F2,F2017.png,F2032.png,F2067.png,F2016.png,0.3,0.3,0.5,3.19527182959609,2018-08-15-12:16:16
111_CF_CFS_test,111,1101,Left,129,129,CF,CFS,congruent,aligned,same,1,1,1.62137971831908,F4,F4040.png,F4020.png,F4040.png,F4020.png,0.3,0.3,0.5,3.52983813636183,2018-08-15-12:16:20
111_CF_CFS_test,111,1101,Left,130,130,CF,CFS,congruent,aligned,same,1,1,0.783428101745812,M3,M3153.png,M3183.png,M3153.png,M3183.png,0.3,0.3,0.5,2.68691829419004,2018-08-15-12:16:23
111_CF_CFS_test,111,1101,Left,131,131,CF,CFS,congruent,misaligned,same,1,1,0.979119065051236,M5,M5146.png,M5178.png,M5146.png,M5178.png,0.3,0.3,0.5,2.88687009207752,2018-08-15-12:16:26
111_CF_CFS_test,111,1101,Left,132,132,CF,CFS,congruent,aligned,different,2,1,0.814475723220312,F3,F3047.png,F3112.png,F3062.png,F3079.png,0.3,0.3,0.5,2.72844344004443,2018-08-15-12:16:28
111_CF_CFS_test,111,1101,Left,133,133,CF,CFS,incongruent,aligned,different,1,0,1.7128839635443,M5,M5152.png,M5154.png,M5178.png,M5154.png,0.3,0.3,0.5,3.62044380272346,2018-08-15-12:16:32
111_CF_CFS_test,111,1101,Left,134,134,CF,CFS,congruent,aligned,different,1,0,0.783207415016477,F3,F3062.png,F3079.png,F3047.png,F3112.png,0.3,0.3,0.5,2.68686366521342,2018-08-15-12:16:35
111_CF_CFS_test,111,1101,Left,135,135,CF,CFS,congruent,aligned,same,1,1,0.78696695886174,F5,F5068.png,F5078.png,F5068.png,F5078.png,0.3,0.3,0.5,2.69534326091343,2018-08-15-12:16:37
111_CF_CFS_test,111,1101,Left,136,136,CF,CFS,congruent,aligned,same,1,1,0.96634768522199,M5,M5154.png,M5146.png,M5154.png,M5146.png,0.3,0.3,0.5,2.87015135003821,2018-08-15-12:16:40
111_CF_CFS_test,111,1101,Left,137,137,CF,CFS,incongruent,aligned,different,2,1,0.778796480633901,M4,M4188.png,M4197.png,M4136.png,M4197.png,0.3,0.3,0.5,2.68782271157215,2018-08-15-12:16:43
111_CF_CFS_test,111,1101,Left,138,138,CF,CFS,congruent,misaligned,same,2,0,2.63834732938631,M2,M2141.png,M2198.png,M2141.png,M2198.png,0.3,0.3,0.5,4.54550997348542,2018-08-15-12:16:47
111_CF_CFS_test,111,1101,Left,139,139,CF,CFS,congruent,aligned,different,1,0,2.1034857882305,F3,F3112.png,F3062.png,F3079.png,F3047.png,0.3,0.3,0.5,4.01200364731903,2018-08-15-12:16:51
111_CF_CFS_test,111,1101,Left,140,140,CF,CFS,congruent,aligned,different,2,1,0.854078648586437,F1,F1046.png,F1015.png,F1059.png,F1002.png,0.3,0.3,0.5,2.76192901412105,2018-08-15-12:16:54
111_CF_CFS_test,111,1101,Left,141,141,CF,CFS,congruent,misaligned,same,1,1,1.11881376463589,M5,M5154.png,M5146.png,M5154.png,M5146.png,0.3,0.3,0.5,3.02860100010457,2018-08-15-12:16:57
111_CF_CFS_test,111,1101,Left,142,142,CF,CFS,incongruent,misaligned,same,1,1,0.676887391887249,M3,M3187.png,M3013.png,M3187.png,M3153.png,0.3,0.3,0.5,2.58683039864081,2018-08-15-12:17:00
111_CF_CFS_test,111,1101,Left,143,143,CF,CFS,incongruent,misaligned,same,1,1,0.644639757426376,M2,M2201.png,M2141.png,M2201.png,M2198.png,0.3,0.3,0.5,2.55359346355726,2018-08-15-12:17:02
111_CF_CFS_test,111,1101,Left,144,144,CF,CFS,congruent,misaligned,different,1,0,0.821782086681196,F4,F4018.png,F4064.png,F4040.png,F4020.png,0.3,0.3,0.5,2.72860356622914,2018-08-15-12:17:05
111_CF_CFS_test,111,1101,Left,145,145,CF,CFS,incongruent,aligned,same,1,1,0.783851880490147,F5,F5076.png,F5033.png,F5076.png,F5068.png,0.3,0.3,0.5,2.68697041600353,2018-08-15-12:17:08
111_CF_CFS_test,111,1101,Left,146,146,CF,CFS,incongruent,aligned,different,1,0,0.7233147474617,F5,F5068.png,F5078.png,F5033.png,F5078.png,0.3,0.3,0.5,2.63687863427367,2018-08-15-12:17:10
111_CF_CFS_test,111,1101,Left,147,147,CF,CFS,congruent,aligned,different,1,0,3.7291997269067,M3,M3187.png,M3013.png,M3153.png,M3183.png,0.3,0.3,0.5,5.63718554279512,2018-08-15-12:17:16
111_CF_CFS_test,111,1101,Left,148,148,CF,CFS,congruent,misaligned,different,2,1,0.59026460025143,F2,F2017.png,F2032.png,F2067.png,F2016.png,0.3,0.3,0.5,2.50352055209351,2018-08-15-12:17:19
111_CF_CFS_test,111,1101,Left,149,149,CF,CFS,congruent,aligned,same,1,1,0.905659809125609,M3,M3013.png,M3153.png,M3013.png,M3153.png,0.3,0.3,0.5,2.81189347502914,2018-08-15-12:17:21
111_CF_CFS_test,111,1101,Left,150,150,CF,CFS,incongruent,misaligned,same,1,1,1.17637712722717,M2,M2198.png,M2142.png,M2198.png,M2201.png,0.3,0.3,0.5,3.08687348352851,2018-08-15-12:17:24
111_CF_CFS_test,111,1101,Left,151,151,CF,CFS,congruent,misaligned,different,2,1,0.884154657202089,M3,M3013.png,M3153.png,M3183.png,M3187.png,0.3,0.3,0.5,2.78686212553748,2018-08-15-12:17:27
111_CF_CFS_test,111,1101,Left,152,152,CF,CFS,incongruent,misaligned,different,2,1,1.13981869330564,F3,F3047.png,F3112.png,F3079.png,F3112.png,0.3,0.3,0.5,3.04528970693173,2018-08-15-12:17:30
111_CF_CFS_test,111,1101,Left,153,153,CF,CFS,congruent,aligned,different,1,0,4.95281120604795,M1,M1122.png,M1186.png,M1125.png,M1119.png,0.3,0.3,0.5,6.86245879231319,2018-08-15-12:17:37
111_CF_CFS_test,111,1101,Left,154,154,CF,CFS,congruent,aligned,same,2,0,0.925129168740568,M2,M2198.png,M2142.png,M2198.png,M2142.png,0.3,0.3,0.5,2.82861981835231,2018-08-15-12:17:40
111_CF_CFS_test,111,1101,Left,155,155,CF,CFS,congruent,aligned,same,2,0,1.6271039502808,F1,F1059.png,F1002.png,F1059.png,F1002.png,0.3,0.3,0.5,3.53699716726896,2018-08-15-12:17:44
111_CF_CFS_test,111,1101,Left,156,156,CF,CFS,congruent,aligned,different,1,0,1.17240984633372,M3,M3153.png,M3183.png,M3187.png,M3013.png,0.3,0.3,0.5,3.08677436407197,2018-08-15-12:17:47
111_CF_CFS_test,111,1101,Left,157,157,CF,CFS,congruent,aligned,same,1,1,1.31239058329174,F5,F5078.png,F5076.png,F5078.png,F5076.png,0.3,0.3,0.5,3.22037221939445,2018-08-15-12:17:50
111_CF_CFS_test,111,1101,Left,158,158,CF,CFS,congruent,aligned,same,1,1,0.838432814861335,F3,F3079.png,F3047.png,F3079.png,F3047.png,0.3,0.3,0.5,2.75344262743783,2018-08-15-12:17:53
111_CF_CFS_test,111,1101,Left,159,159,CF,CFS,congruent,misaligned,different,2,1,0.655878959652,M4,M4136.png,M4188.png,M4197.png,M4134.png,0.3,0.3,0.5,2.56194710703676,2018-08-15-12:17:55
111_CF_CFS_test,111,1101,Left,160,160,CF,CFS,incongruent,aligned,same,1,1,1.02467496465852,F2,F2016.png,F2017.png,F2016.png,F2032.png,0.3,0.3,0.5,2.92865805014026,2018-08-15-12:17:58
111_CF_CFS_test,111,1101,Left,161,161,CF,CFS,congruent,aligned,different,2,1,1.46131483027239,M4,M4188.png,M4197.png,M4134.png,M4136.png,0.3,0.3,0.5,3.37162618747425,2018-08-15-12:18:24
111_CF_CFS_test,111,1101,Left,162,162,CF,CFS,incongruent,misaligned,different,2,1,0.99768685950221,M5,M5178.png,M5152.png,M5146.png,M5152.png,0.3,0.3,0.5,2.90359445648573,2018-08-15-12:18:27
111_CF_CFS_test,111,1101,Left,163,163,CF,CFS,congruent,aligned,same,1,1,0.776718540878392,F2,F2017.png,F2032.png,F2017.png,F2032.png,0.3,0.3,0.5,2.68688932646,2018-08-15-12:18:29
111_CF_CFS_test,111,1101,Left,164,164,CF,CFS,incongruent,aligned,different,2,1,2.82831378158244,F1,F1015.png,F1059.png,F1046.png,F1059.png,0.3,0.3,0.5,4.73706767213116,2018-08-15-12:18:34
111_CF_CFS_test,111,1101,Left,165,165,CF,CFS,congruent,misaligned,different,2,1,1.03781283912031,F2,F2032.png,F2067.png,F2016.png,F2017.png,0.3,0.3,0.5,2.94529022015649,2018-08-15-12:18:37
111_CF_CFS_test,111,1101,Left,166,166,CF,CFS,incongruent,aligned,same,1,1,0.783216995216208,F1,F1015.png,F1059.png,F1015.png,F1002.png,0.3,0.3,0.5,2.68681644851767,2018-08-15-12:18:40
111_CF_CFS_test,111,1101,Left,167,167,CF,CFS,incongruent,misaligned,same,1,1,1.93890857439237,F2,F2032.png,F2067.png,F2032.png,F2016.png,0.3,0.3,0.5,3.84534410877677,2018-08-15-12:18:44
111_CF_CFS_test,111,1101,Left,168,168,CF,CFS,incongruent,misaligned,same,2,0,0.848216593189136,F4,F4018.png,F4064.png,F4018.png,F4040.png,0.3,0.3,0.5,2.75360338590599,2018-08-15-12:18:46
111_CF_CFS_test,111,1101,Left,169,169,CF,CFS,incongruent,misaligned,same,1,1,0.833294748796106,F4,F4040.png,F4020.png,F4040.png,F4018.png,0.3,0.3,0.5,2.73687196235005,2018-08-15-12:18:49
111_CF_CFS_test,111,1101,Left,170,170,CF,CFS,incongruent,misaligned,different,1,0,0.754717271501249,F1,F1002.png,F1046.png,F1059.png,F1046.png,0.3,0.3,0.5,2.67008335524406,2018-08-15-12:18:52
111_CF_CFS_test,111,1101,Left,171,171,CF,CFS,congruent,misaligned,different,2,1,1.03117170824589,F5,F5068.png,F5078.png,F5076.png,F5033.png,0.3,0.3,0.5,2.94494978093826,2018-08-15-12:18:55
111_CF_CFS_test,111,1101,Left,172,172,CF,CFS,congruent,aligned,same,1,1,0.832805485327299,F3,F3047.png,F3112.png,F3047.png,F3112.png,0.3,0.3,0.5,2.7369496303927,2018-08-15-12:18:57
111_CF_CFS_test,111,1101,Left,173,173,CF,CFS,congruent,misaligned,different,1,0,1.7385404210263,F3,F3062.png,F3079.png,F3047.png,F3112.png,0.3,0.3,0.5,3.64538790397273,2018-08-15-12:19:01
111_CF_CFS_test,111,1101,Left,174,174,CF,CFS,congruent,misaligned,same,1,1,1.02382095833855,F1,F1046.png,F1015.png,F1046.png,F1015.png,0.3,0.3,0.5,2.92864154487597,2018-08-15-12:19:04
111_CF_CFS_test,111,1101,Left,175,175,CF,CFS,incongruent,aligned,same,1,1,1.81775933646077,F4,F4040.png,F4020.png,F4040.png,F4018.png,0.3,0.3,0.5,3.7202978757623,2018-08-15-12:19:08
111_CF_CFS_test,111,1101,Left,176,176,CF,CFS,incongruent,misaligned,different,2,1,1.59598192621252,M2,M2201.png,M2141.png,M2142.png,M2141.png,0.3,0.3,0.5,3.50355716213926,2018-08-15-12:19:11
111_CF_CFS_test,111,1101,Left,177,177,CF,CFS,incongruent,misaligned,different,1,0,0.831023070094489,F4,F4064.png,F4040.png,F4018.png,F4040.png,0.3,0.3,0.5,2.73700250758611,2018-08-15-12:19:14
111_CF_CFS_test,111,1101,Left,178,178,CF,CFS,congruent,misaligned,same,1,1,0.848862914478559,M1,M1122.png,M1186.png,M1122.png,M1186.png,0.3,0.3,0.5,2.75356231692513,2018-08-15-12:19:17
111_CF_CFS_test,111,1101,Left,179,179,CF,CFS,incongruent,misaligned,different,2,1,1.27384007019191,F2,F2016.png,F2017.png,F2067.png,F2017.png,0.3,0.3,0.5,3.1785585810203,2018-08-15-12:19:20
111_CF_CFS_test,111,1101,Left,180,180,CF,CFS,incongruent,misaligned,same,1,1,1.14586961548594,M4,M4136.png,M4188.png,M4136.png,M4197.png,0.3,0.3,0.5,3.05359680703077,2018-08-15-12:19:23
111_CF_CFS_test,111,1101,Left,181,181,CF,CFS,incongruent,aligned,different,2,1,0.798858380991987,F4,F4018.png,F4064.png,F4020.png,F4064.png,0.3,0.3,0.5,2.70347436184693,2018-08-15-12:19:26
111_CF_CFS_test,111,1101,Left,182,182,CF,CFS,incongruent,misaligned,same,1,1,0.690009486417694,F4,F4064.png,F4040.png,F4064.png,F4020.png,0.3,0.3,0.5,2.59538576553496,2018-08-15-12:19:28
111_CF_CFS_test,111,1101,Left,183,183,CF,CFS,congruent,aligned,same,1,1,1.01746175903827,F2,F2067.png,F2016.png,F2067.png,F2016.png,0.3,0.3,0.5,2.92025818636557,2018-08-15-12:19:31
111_CF_CFS_test,111,1101,Left,184,184,CF,CFS,congruent,misaligned,different,1,0,2.57169543720102,F5,F5033.png,F5068.png,F5078.png,F5076.png,0.3,0.3,0.5,4.47871911639595,2018-08-15-12:19:36
111_CF_CFS_test,111,1101,Left,185,185,CF,CFS,incongruent,aligned,different,1,0,1.74349509470903,F5,F5033.png,F5068.png,F5076.png,F5068.png,0.3,0.3,0.5,3.6452712308328,2018-08-15-12:19:39
111_CF_CFS_test,111,1101,Left,186,186,CF,CFS,congruent,misaligned,same,1,1,0.948780969561994,M1,M1119.png,M1122.png,M1119.png,M1122.png,0.3,0.3,0.5,2.8538232692772,2018-08-15-12:19:42
111_CF_CFS_test,111,1101,Left,187,187,CF,CFS,incongruent,aligned,same,1,1,2.32938003993968,M3,M3153.png,M3183.png,M3153.png,M3187.png,0.3,0.3,0.5,4.24446008630912,2018-08-15-12:19:46
111_CF_CFS_test,111,1101,Left,188,188,CF,CFS,congruent,aligned,same,1,1,0.918691274947378,F3,F3062.png,F3079.png,F3062.png,F3079.png,0.3,0.3,0.5,2.82838955142415,2018-08-15-12:19:49
111_CF_CFS_test,111,1101,Left,189,189,CF,CFS,incongruent,aligned,different,2,1,1.19699982236671,M1,M1122.png,M1186.png,M1119.png,M1186.png,0.3,0.3,0.5,3.10372994787394,2018-08-15-12:19:52
111_CF_CFS_test,111,1101,Left,190,190,CF,CFS,incongruent,aligned,different,1,0,1.41598988189344,M5,M5154.png,M5146.png,M5152.png,M5146.png,0.3,0.3,0.5,3.32031053531045,2018-08-15-12:19:56
111_CF_CFS_test,111,1101,Left,191,191,CF,CFS,congruent,misaligned,different,2,1,0.730366707397479,F5,F5078.png,F5076.png,F5033.png,F5068.png,0.3,0.3,0.5,2.63695204046599,2018-08-15-12:19:58
111_CF_CFS_test,111,1101,Left,192,192,CF,CFS,congruent,misaligned,different,2,1,1.61606373426912,M2,M2141.png,M2198.png,M2142.png,M2201.png,0.3,0.3,0.5,3.52029411211242,2018-08-15-12:20:02
111_CF_CFS_test,111,1101,Left,193,193,CF,CFS,congruent,aligned,same,1,1,0.986378118767789,M4,M4197.png,M4134.png,M4197.png,M4134.png,0.3,0.3,0.5,2.89519809627745,2018-08-15-12:20:05
111_CF_CFS_test,111,1101,Left,194,194,CF,CFS,congruent,aligned,same,1,1,0.805812921235884,F1,F1015.png,F1059.png,F1015.png,F1059.png,0.3,0.3,0.5,2.71459697299997,2018-08-15-12:20:08
111_CF_CFS_test,111,1101,Left,195,195,CF,CFS,incongruent,misaligned,same,1,1,1.6165177672774,F2,F2067.png,F2016.png,F2067.png,F2017.png,0.3,0.3,0.5,3.52037363597083,2018-08-15-12:20:11
111_CF_CFS_test,111,1101,Left,196,196,CF,CFS,congruent,aligned,same,1,1,0.650852858690996,F3,F3112.png,F3062.png,F3112.png,F3062.png,0.3,0.3,0.5,2.55344741753743,2018-08-15-12:20:14
111_CF_CFS_test,111,1101,Left,197,197,CF,CFS,incongruent,aligned,different,2,1,0.69992983460088,F1,F1002.png,F1046.png,F1059.png,F1046.png,0.3,0.3,0.5,2.60357033491346,2018-08-15-12:20:16
111_CF_CFS_test,111,1101,Left,198,198,CF,CFS,congruent,aligned,same,1,1,1.30667272908067,F1,F1046.png,F1015.png,F1046.png,F1015.png,0.3,0.3,0.5,3.21932668307909,2018-08-15-12:20:19
111_CF_CFS_test,111,1101,Left,199,199,CF,CFS,incongruent,misaligned,different,2,1,0.817045414543827,M5,M5146.png,M5178.png,M5154.png,M5178.png,0.3,0.3,0.5,2.72863547922589,2018-08-15-12:20:22
111_CF_CFS_test,111,1101,Left,200,200,CF,CFS,congruent,aligned,different,2,1,1.71543127005498,M4,M4134.png,M4136.png,M4188.png,M4197.png,0.3,0.3,0.5,3.62031823368579,2018-08-15-12:20:26
111_CF_CFS_test,111,1101,Left,201,201,CF,CFS,congruent,misaligned,same,2,0,1.39322170937339,F4,F4040.png,F4020.png,F4040.png,F4020.png,0.3,0.3,0.5,3.29941577892987,2018-08-15-12:20:55
111_CF_CFS_test,111,1101,Left,202,202,CF,CFS,incongruent,misaligned,different,1,0,1.04423328326448,M2,M2198.png,M2142.png,M2141.png,M2142.png,0.3,0.3,0.5,2.96164156711529,2018-08-15-12:20:58
111_CF_CFS_test,111,1101,Left,203,203,CF,CFS,congruent,misaligned,same,1,1,0.637013918944831,F2,F2016.png,F2017.png,F2016.png,F2017.png,0.3,0.3,0.5,2.55300228042961,2018-08-15-12:21:01
111_CF_CFS_test,111,1101,Left,204,204,CF,CFS,incongruent,aligned,different,2,1,1.56605714788293,M4,M4197.png,M4134.png,M4188.png,M4134.png,0.3,0.3,0.5,3.47852805164803,2018-08-15-12:21:04
111_CF_CFS_test,111,1101,Left,205,205,CF,CFS,incongruent,misaligned,different,1,0,1.32235638540169,M5,M5152.png,M5154.png,M5178.png,M5154.png,0.3,0.3,0.5,3.22853798378037,2018-08-15-12:21:07
111_CF_CFS_test,111,1101,Left,206,206,CF,CFS,congruent,misaligned,same,1,1,0.928011097918898,M2,M2142.png,M2201.png,M2142.png,M2201.png,0.3,0.3,0.5,2.84395184854111,2018-08-15-12:21:10
111_CF_CFS_test,111,1101,Left,207,207,CF,CFS,congruent,aligned,different,1,0,0.669760408059119,F3,F3079.png,F3047.png,F3112.png,F3062.png,0.3,0.3,0.5,2.57861939066515,2018-08-15-12:21:13
111_CF_CFS_test,111,1101,Left,208,208,CF,CFS,incongruent,aligned,same,1,1,0.693882281902916,M3,M3187.png,M3013.png,M3187.png,M3153.png,0.3,0.3,0.5,2.60345434607461,2018-08-15-12:21:15
111_CF_CFS_test,111,1101,Left,209,209,CF,CFS,incongruent,misaligned,different,2,1,1.48496726337544,M1,M1119.png,M1122.png,M1125.png,M1122.png,0.3,0.3,0.5,3.39594449643209,2018-08-15-12:21:19
111_CF_CFS_test,111,1101,Left,210,210,CF,CFS,incongruent,misaligned,same,2,0,0.852282703406672,F3,F3112.png,F3062.png,F3112.png,F3079.png,0.3,0.3,0.5,2.76189236304162,2018-08-15-12:21:21
111_CF_CFS_test,111,1101,Left,211,211,CF,CFS,incongruent,aligned,different,2,1,1.22062919734071,M2,M2198.png,M2142.png,M2141.png,M2142.png,0.3,0.3,0.5,3.13685964495016,2018-08-15-12:21:25
111_CF_CFS_test,111,1101,Left,212,212,CF,CFS,congruent,misaligned,same,1,1,0.694704167158307,F3,F3062.png,F3079.png,F3062.png,F3079.png,0.3,0.3,0.5,2.6036607555543,2018-08-15-12:21:27
111_CF_CFS_test,111,1101,Left,213,213,CF,CFS,incongruent,misaligned,same,1,1,1.42943187566016,F5,F5078.png,F5076.png,F5078.png,F5033.png,0.3,0.3,0.5,3.34533263576759,2018-08-15-12:21:31
111_CF_CFS_test,111,1101,Left,214,214,CF,CFS,incongruent,aligned,different,1,0,0.70314842836251,F4,F4064.png,F4040.png,F4018.png,F4040.png,0.3,0.3,0.5,2.61183462523422,2018-08-15-12:21:33
111_CF_CFS_test,111,1101,Left,215,215,CF,CFS,congruent,misaligned,different,2,1,0.918041532158895,M3,M3153.png,M3183.png,M3187.png,M3013.png,0.3,0.3,0.5,2.82863242588519,2018-08-15-12:21:36
111_CF_CFS_test,111,1101,Left,216,216,CF,CFS,congruent,misaligned,same,1,1,1.53991723249692,M1,M1125.png,M1119.png,M1125.png,M1119.png,0.3,0.3,0.5,3.44504541185415,2018-08-15-12:21:39
111_CF_CFS_test,111,1101,Left,217,217,CF,CFS,incongruent,misaligned,same,1,1,1.41714904495257,M5,M5178.png,M5152.png,M5178.png,M5154.png,0.3,0.3,0.5,3.32035330405688,2018-08-15-12:21:43
111_CF_CFS_test,111,1101,Left,218,218,CF,CFS,incongruent,misaligned,same,1,1,0.707580639043954,M1,M1186.png,M1125.png,M1186.png,M1119.png,0.3,0.3,0.5,2.61184933768345,2018-08-15-12:21:45
111_CF_CFS_test,111,1101,Left,219,219,CF,CFS,incongruent,aligned,different,1,0,0.682393269167733,F3,F3047.png,F3112.png,F3079.png,F3112.png,0.3,0.3,0.5,2.58699506582434,2018-08-15-12:21:48
111_CF_CFS_test,111,1101,Left,220,220,CF,CFS,incongruent,aligned,same,1,1,0.74613478171068,M3,M3183.png,M3187.png,M3183.png,M3013.png,0.3,0.3,0.5,2.65361244189535,2018-08-15-12:21:51
111_CF_CFS_test,111,1101,Left,221,221,CF,CFS,incongruent,aligned,same,1,1,1.03930016503,F2,F2067.png,F2016.png,F2067.png,F2017.png,0.3,0.3,0.5,2.94519577578012,2018-08-15-12:21:54
111_CF_CFS_test,111,1101,Left,222,222,CF,CFS,congruent,misaligned,same,1,1,0.744677907148798,M4,M4188.png,M4197.png,M4188.png,M4197.png,0.3,0.3,0.5,2.65353141535525,2018-08-15-12:21:56
111_CF_CFS_test,111,1101,Left,223,223,CF,CFS,incongruent,aligned,same,1,1,3.05349547997503,M1,M1122.png,M1186.png,M1122.png,M1125.png,0.3,0.3,0.5,4.96223871185794,2018-08-15-12:22:01
111_CF_CFS_test,111,1101,Left,224,224,CF,CFS,congruent,misaligned,different,2,1,1.19799513662292,F1,F1046.png,F1015.png,F1059.png,F1002.png,0.3,0.3,0.5,3.10351849919334,2018-08-15-12:22:04
111_CF_CFS_test,111,1101,Left,225,225,CF,CFS,congruent,misaligned,same,1,1,1.71294252320604,F1,F1015.png,F1059.png,F1015.png,F1059.png,0.3,0.3,0.5,3.62031447003574,2018-08-15-12:22:08
111_CF_CFS_test,111,1101,Left,226,226,CF,CFS,congruent,aligned,different,1,0,1.56718042622742,F1,F1059.png,F1002.png,F1046.png,F1015.png,0.3,0.3,0.5,3.47040214596473,2018-08-15-12:22:11
111_CF_CFS_test,111,1101,Left,227,227,CF,CFS,incongruent,misaligned,different,2,1,1.13955421138053,F3,F3062.png,F3079.png,F3112.png,F3079.png,0.3,0.3,0.5,3.04530920947946,2018-08-15-12:22:14
111_CF_CFS_test,111,1101,Left,228,228,CF,CFS,congruent,misaligned,different,1,0,0.944868484680228,F1,F1015.png,F1059.png,F1002.png,F1046.png,0.3,0.3,0.5,2.85354236415424,2018-08-15-12:22:17
111_CF_CFS_test,111,1101,Left,229,229,CF,CFS,congruent,misaligned,same,1,1,1.41390174063963,F4,F4018.png,F4064.png,F4018.png,F4064.png,0.3,0.3,0.5,3.32032935355892,2018-08-15-12:22:21
111_CF_CFS_test,111,1101,Left,230,230,CF,CFS,incongruent,misaligned,different,2,1,0.744280920135679,F5,F5068.png,F5078.png,F5033.png,F5078.png,0.3,0.3,0.5,2.65359984534825,2018-08-15-12:22:23
111_CF_CFS_test,111,1101,Left,231,231,CF,CFS,incongruent,aligned,same,1,1,1.04534317672733,M2,M2142.png,M2201.png,M2142.png,M2141.png,0.3,0.3,0.5,2.95361541317197,2018-08-15-12:22:26
111_CF_CFS_test,111,1101,Left,232,232,CF,CFS,incongruent,misaligned,different,2,1,0.654111494984136,F5,F5033.png,F5068.png,F5076.png,F5068.png,0.3,0.3,0.5,2.57019668490921,2018-08-15-12:22:29
111_CF_CFS_test,111,1101,Left,233,233,CF,CFS,incongruent,misaligned,different,1,0,1.66278533881632,M3,M3013.png,M3153.png,M3187.png,M3153.png,0.3,0.3,0.5,3.57036153819172,2018-08-15-12:22:32
111_CF_CFS_test,111,1101,Left,234,234,CF,CFS,incongruent,misaligned,different,2,1,1.99901508567746,F3,F3112.png,F3062.png,F3047.png,F3062.png,0.3,0.3,0.5,3.90362410851503,2018-08-15-12:22:36
111_CF_CFS_test,111,1101,Left,235,235,CF,CFS,incongruent,misaligned,different,1,0,1.11395352434374,M5,M5154.png,M5146.png,M5152.png,M5146.png,0.3,0.3,0.5,3.02018694114668,2018-08-15-12:22:39
111_CF_CFS_test,111,1101,Left,236,236,CF,CFS,congruent,misaligned,same,1,1,1.68838773660354,F4,F4064.png,F4040.png,F4064.png,F4040.png,0.3,0.3,0.5,3.59524069394865,2018-08-15-12:22:43
111_CF_CFS_test,111,1101,Left,237,237,CF,CFS,congruent,aligned,different,2,1,0.887572103097227,F4,F4020.png,F4018.png,F4064.png,F4040.png,0.3,0.3,0.5,2.79527388249517,2018-08-15-12:22:46
111_CF_CFS_test,111,1101,Left,238,238,CF,CFS,congruent,aligned,same,1,1,1.03896521119623,M1,M1125.png,M1119.png,M1125.png,M1119.png,0.3,0.3,0.5,2.94535386005009,2018-08-15-12:22:49
111_CF_CFS_test,111,1101,Left,239,239,CF,CFS,congruent,aligned,different,2,1,0.664397207314323,F5,F5078.png,F5076.png,F5033.png,F5068.png,0.3,0.3,0.5,2.57029135641642,2018-08-15-12:22:51
111_CF_CFS_test,111,1101,Left,240,240,CF,CFS,incongruent,misaligned,same,1,1,2.04072042954613,M1,M1125.png,M1119.png,M1125.png,M1122.png,0.3,0.3,0.5,3.94530938055414,2018-08-15-12:22:55
111_CF_CFS_test,111,1101,Left,241,241,CF,CFS,congruent,aligned,same,2,0,0.73809733681901,M3,M3187.png,M3013.png,M3187.png,M3013.png,0.3,0.3,0.5,2.64761026106225,2018-08-15-12:23:22
111_CF_CFS_test,111,1101,Left,242,242,CF,CFS,incongruent,aligned,different,2,1,1.07911889397656,M3,M3187.png,M3013.png,M3183.png,M3013.png,0.3,0.3,0.5,2.99523316664909,2018-08-15-12:23:25
111_CF_CFS_test,111,1101,Left,243,243,CF,CFS,congruent,misaligned,different,2,1,1.04682389775462,F3,F3047.png,F3112.png,F3062.png,F3079.png,0.3,0.3,0.5,2.95366546011701,2018-08-15-12:23:28
111_CF_CFS_test,111,1101,Left,244,244,CF,CFS,incongruent,aligned,same,1,1,1.43978670228353,F1,F1046.png,F1015.png,F1046.png,F1059.png,0.3,0.3,0.5,3.34525472960922,2018-08-15-12:23:31
111_CF_CFS_test,111,1101,Left,245,245,CF,CFS,congruent,aligned,same,1,1,0.848834858180453,M1,M1119.png,M1122.png,M1119.png,M1122.png,0.3,0.3,0.5,2.76188996799192,2018-08-15-12:23:34
111_CF_CFS_test,111,1101,Left,246,246,CF,CFS,congruent,misaligned,different,2,1,1.62592552279057,F2,F2067.png,F2016.png,F2017.png,F2032.png,0.3,0.3,0.5,3.52871955506816,2018-08-15-12:23:37
111_CF_CFS_test,111,1101,Left,247,247,CF,CFS,congruent,aligned,same,1,1,0.843919189594089,M2,M2201.png,M2141.png,M2201.png,M2141.png,0.3,0.3,0.5,2.75359351557381,2018-08-15-12:23:40
111_CF_CFS_test,111,1101,Left,248,248,CF,CFS,incongruent,misaligned,different,2,1,0.72495951437395,M2,M2142.png,M2201.png,M2198.png,M2201.png,0.3,0.3,0.5,2.62850040801368,2018-08-15-12:23:43
111_CF_CFS_test,111,1101,Left,249,249,CF,CFS,incongruent,aligned,different,1,0,1.15500840009099,M3,M3183.png,M3187.png,M3153.png,M3187.png,0.3,0.3,0.5,3.06193393426292,2018-08-15-12:23:46
111_CF_CFS_test,111,1101,Left,250,250,CF,CFS,incongruent,aligned,same,2,0,1.03973162712373,F3,F3079.png,F3047.png,F3079.png,F3112.png,0.3,0.3,0.5,2.94526113740994,2018-08-15-12:23:49
111_CF_CFS_test,111,1101,Left,251,251,CF,CFS,incongruent,misaligned,different,1,0,1.32108716507264,F4,F4020.png,F4018.png,F4040.png,F4018.png,0.3,0.3,0.5,3.22871185669464,2018-08-15-12:23:52
111_CF_CFS_test,111,1101,Left,252,252,CF,CFS,incongruent,misaligned,different,2,1,0.639121904897365,M3,M3187.png,M3013.png,M3183.png,M3013.png,0.3,0.3,0.5,2.5452306860625,2018-08-15-12:23:54
111_CF_CFS_test,111,1101,Left,253,253,CF,CFS,incongruent,aligned,same,1,1,0.848654545148747,F3,F3112.png,F3062.png,F3112.png,F3079.png,0.3,0.3,0.5,2.75356409067717,2018-08-15-12:23:57
111_CF_CFS_test,111,1101,Left,254,254,CF,CFS,incongruent,misaligned,different,2,1,0.913662406737785,M1,M1125.png,M1119.png,M1186.png,M1119.png,0.3,0.3,0.5,2.82030943083555,2018-08-15-12:24:00
111_CF_CFS_test,111,1101,Left,255,255,CF,CFS,incongruent,misaligned,same,1,1,0.784132930679334,M4,M4197.png,M4134.png,M4197.png,M4136.png,0.3,0.3,0.5,2.68694273190431,2018-08-15-12:24:03
111_CF_CFS_test,111,1101,Left,256,256,CF,CFS,incongruent,aligned,different,2,1,0.771887383333706,F2,F2032.png,F2067.png,F2017.png,F2067.png,0.3,0.3,0.5,2.67836089636421,2018-08-15-12:24:05
111_CF_CFS_test,111,1101,Left,257,257,CF,CFS,congruent,aligned,same,1,1,0.895947197991518,M5,M5152.png,M5154.png,M5152.png,M5154.png,0.3,0.3,0.5,2.80372405329854,2018-08-15-12:24:08
111_CF_CFS_test,111,1101,Left,258,258,CF,CFS,incongruent,aligned,different,2,1,1.4710157562904,M5,M5178.png,M5152.png,M5146.png,M5152.png,0.3,0.3,0.5,3.37864402546256,2018-08-15-12:24:12
111_CF_CFS_test,111,1101,Left,259,259,CF,CFS,incongruent,aligned,same,1,1,0.583062685580444,F5,F5078.png,F5076.png,F5078.png,F5033.png,0.3,0.3,0.5,2.48683458246614,2018-08-15-12:24:14
111_CF_CFS_test,111,1101,Left,260,260,CF,CFS,incongruent,misaligned,same,2,0,1.71473157337095,F2,F2017.png,F2032.png,F2017.png,F2067.png,0.3,0.3,0.5,3.62035996499617,2018-08-15-12:24:18
111_CF_CFS_test,111,1101,Left,261,261,CF,CFS,incongruent,aligned,different,2,1,0.729068341319362,M1,M1186.png,M1125.png,M1122.png,M1125.png,0.3,0.3,0.5,2.63684065562757,2018-08-15-12:24:20
111_CF_CFS_test,111,1101,Left,262,262,CF,CFS,incongruent,aligned,different,2,1,0.894809073116448,F3,F3112.png,F3062.png,F3047.png,F3062.png,0.3,0.3,0.5,2.80364766080584,2018-08-15-12:24:23
111_CF_CFS_test,111,1101,Left,263,263,CF,CFS,incongruent,misaligned,same,1,1,0.909955159820129,F3,F3047.png,F3112.png,F3047.png,F3062.png,0.3,0.3,0.5,2.82027341203866,2018-08-15-12:24:26
111_CF_CFS_test,111,1101,Left,264,264,CF,CFS,incongruent,aligned,same,1,1,1.61186726491542,M4,M4197.png,M4134.png,M4197.png,M4136.png,0.3,0.3,0.5,3.52865048180774,2018-08-15-12:24:29
111_CF_CFS_test,111,1101,Left,265,265,CF,CFS,incongruent,aligned,same,2,0,0.782264791855596,M5,M5146.png,M5178.png,M5146.png,M5152.png,0.3,0.3,0.5,2.68689723694297,2018-08-15-12:24:32
111_CF_CFS_test,111,1101,Left,266,266,CF,CFS,incongruent,misaligned,same,1,1,1.78592237501016,F1,F1015.png,F1059.png,F1015.png,F1002.png,0.3,0.3,0.5,3.69568951668134,2018-08-15-12:24:36
111_CF_CFS_test,111,1101,Left,267,267,CF,CFS,congruent,aligned,same,1,1,1.30088784352483,M5,M5178.png,M5152.png,M5178.png,M5152.png,0.3,0.3,0.5,3.2118875954784,2018-08-15-12:24:39
111_CF_CFS_test,111,1101,Left,268,268,CF,CFS,incongruent,aligned,same,1,1,1.3958519092248,F2,F2017.png,F2032.png,F2017.png,F2067.png,0.3,0.3,0.5,3.30349625944564,2018-08-15-12:24:42
111_CF_CFS_test,111,1101,Left,269,269,CF,CFS,congruent,aligned,different,2,1,0.82290057492628,M2,M2198.png,M2142.png,M2201.png,M2141.png,0.3,0.3,0.5,2.72861109352834,2018-08-15-12:24:45
111_CF_CFS_test,111,1101,Left,270,270,CF,CFS,incongruent,aligned,same,1,1,1.52061313131617,F3,F3062.png,F3079.png,F3062.png,F3047.png,0.3,0.3,0.5,3.43688479297361,2018-08-15-12:24:49
111_CF_CFS_test,111,1101,Left,271,271,CF,CFS,incongruent,misaligned,different,2,1,1.27850357425268,F5,F5076.png,F5033.png,F5078.png,F5033.png,0.3,0.3,0.5,3.18696100687885,2018-08-15-12:24:52
111_CF_CFS_test,111,1101,Left,272,272,CF,CFS,incongruent,aligned,different,1,0,1.11018953254916,F4,F4040.png,F4020.png,F4064.png,F4020.png,0.3,0.3,0.5,3.0200845452573,2018-08-15-12:24:55
111_CF_CFS_test,111,1101,Left,273,273,CF,CFS,congruent,aligned,different,2,1,0.588645546604312,F1,F1002.png,F1046.png,F1015.png,F1059.png,0.3,0.3,0.5,2.49688806801805,2018-08-15-12:24:57
111_CF_CFS_test,111,1101,Left,274,274,CF,CFS,incongruent,misaligned,same,2,0,0.864095088893009,F4,F4020.png,F4018.png,F4020.png,F4064.png,0.3,0.3,0.5,2.77018744685938,2018-08-15-12:25:00
111_CF_CFS_test,111,1101,Left,275,275,CF,CFS,incongruent,misaligned,same,1,1,1.05642609848292,F1,F1002.png,F1046.png,F1002.png,F1015.png,0.3,0.3,0.5,2.96189407379097,2018-08-15-12:25:03
111_CF_CFS_test,111,1101,Left,276,276,CF,CFS,congruent,aligned,same,1,1,0.720879323991539,M4,M4188.png,M4197.png,M4188.png,M4197.png,0.3,0.3,0.5,2.63681890309545,2018-08-15-12:25:06
111_CF_CFS_test,111,1101,Left,277,277,CF,CFS,incongruent,aligned,different,2,1,0.782961368157885,M4,M4134.png,M4136.png,M4197.png,M4136.png,0.3,0.3,0.5,2.68682979236564,2018-08-15-12:25:08
111_CF_CFS_test,111,1101,Left,278,278,CF,CFS,incongruent,misaligned,same,1,1,1.21068382019348,F1,F1059.png,F1002.png,F1059.png,F1046.png,0.3,0.3,0.5,3.12035254577131,2018-08-15-12:25:11
111_CF_CFS_test,111,1101,Left,279,279,CF,CFS,incongruent,aligned,same,1,1,0.909115523799301,F2,F2032.png,F2067.png,F2032.png,F2016.png,0.3,0.3,0.5,2.81173813894384,2018-08-15-12:25:14
111_CF_CFS_test,111,1101,Left,280,280,CF,CFS,congruent,aligned,different,2,1,1.73967963535324,F4,F4064.png,F4040.png,F4020.png,F4018.png,0.3,0.3,0.5,3.6453681523235,2018-08-15-12:25:18
111_CF_CFS_test,111,1101,Left,281,281,CF,CFS,congruent,misaligned,different,2,1,1.2967303792675,M4,M4188.png,M4197.png,M4134.png,M4136.png,0.3,0.3,0.5,3.20845828935308,2018-08-15-12:25:45
111_CF_CFS_test,111,1101,Left,282,282,CF,CFS,congruent,misaligned,same,1,1,2.90353810712713,F5,F5076.png,F5033.png,F5076.png,F5033.png,0.3,0.3,0.5,4.81213469075647,2018-08-15-12:25:50
111_CF_CFS_test,111,1101,Left,283,283,CF,CFS,incongruent,misaligned,different,2,1,1.03805644989734,M4,M4197.png,M4134.png,M4188.png,M4134.png,0.3,0.3,0.5,2.94535879521573,2018-08-15-12:25:53
111_CF_CFS_test,111,1101,Left,284,284,CF,CFS,congruent,misaligned,different,2,1,0.823459647973323,M1,M1186.png,M1125.png,M1119.png,M1122.png,0.3,0.3,0.5,2.72860767202837,2018-08-15-12:25:55
111_CF_CFS_test,111,1101,Left,285,285,CF,CFS,congruent,aligned,different,2,1,0.729539481825668,M3,M3013.png,M3153.png,M3183.png,M3187.png,0.3,0.3,0.5,2.63691045422092,2018-08-15-12:25:58
111_CF_CFS_test,111,1101,Left,286,286,CF,CFS,congruent,aligned,different,2,1,0.839285069398102,F2,F2032.png,F2067.png,F2016.png,F2017.png,0.3,0.3,0.5,2.745311411486,2018-08-15-12:26:01
111_CF_CFS_test,111,1101,Left,287,287,CF,CFS,incongruent,misaligned,same,1,1,0.744786710838525,F1,F1046.png,F1015.png,F1046.png,F1059.png,0.3,0.3,0.5,2.65345956386136,2018-08-15-12:26:03
111_CF_CFS_test,111,1101,Left,288,288,CF,CFS,incongruent,misaligned,same,1,1,0.398065619516274,M4,M4134.png,M4136.png,M4134.png,M4188.png,0.3,0.3,0.5,2.30354410842392,2018-08-15-12:26:06
111_CF_CFS_test,111,1101,Left,289,289,CF,CFS,incongruent,misaligned,same,1,1,0.737021721353813,F5,F5076.png,F5033.png,F5076.png,F5068.png,0.3,0.3,0.5,2.64523256788652,2018-08-15-12:26:08
111_CF_CFS_test,111,1101,Left,290,290,CF,CFS,incongruent,aligned,different,1,0,0.574487630038675,F2,F2016.png,F2017.png,F2067.png,F2017.png,0.3,0.3,0.5,2.47851349525081,2018-08-15-12:26:11
111_CF_CFS_test,111,1101,Left,291,291,CF,CFS,incongruent,aligned,different,1,0,0.922608892077733,F5,F5076.png,F5033.png,F5078.png,F5033.png,0.3,0.3,0.5,2.82857665543997,2018-08-15-12:26:14
111_CF_CFS_test,111,1101,Left,292,292,CF,CFS,incongruent,misaligned,different,1,0,0.592727395719521,F4,F4040.png,F4020.png,F4064.png,F4020.png,0.3,0.3,0.5,2.49516593418048,2018-08-15-12:26:16
111_CF_CFS_test,111,1101,Left,293,293,CF,CFS,incongruent,aligned,different,1,0,0.724164409865807,F4,F4020.png,F4018.png,F4040.png,F4018.png,0.3,0.3,0.5,2.62864719034951,2018-08-15-12:26:19
111_CF_CFS_test,111,1101,Left,294,294,CF,CFS,incongruent,aligned,different,2,1,3.39401061414992,M2,M2141.png,M2198.png,M2201.png,M2198.png,0.3,0.3,0.5,5.30396705780095,2018-08-15-12:26:24
111_CF_CFS_test,111,1101,Left,295,295,CF,CFS,congruent,misaligned,different,1,0,1.30048205366347,F3,F3112.png,F3062.png,F3079.png,F3047.png,0.3,0.3,0.5,3.21194044262393,2018-08-15-12:26:27
111_CF_CFS_test,111,1101,Left,296,296,CF,CFS,incongruent,misaligned,same,1,1,0.547161480714749,F3,F3079.png,F3047.png,F3079.png,F3112.png,0.3,0.3,0.5,2.46181843264003,2018-08-15-12:26:30
111_CF_CFS_test,111,1101,Left,297,297,CF,CFS,incongruent,misaligned,same,1,1,1.28032086681378,M1,M1119.png,M1122.png,M1119.png,M1186.png,0.3,0.3,0.5,3.18697062811043,2018-08-15-12:26:33
111_CF_CFS_test,111,1101,Left,298,298,CF,CFS,congruent,aligned,same,1,1,0.999916650842351,M2,M2141.png,M2198.png,M2141.png,M2198.png,0.3,0.3,0.5,2.9034709403486,2018-08-15-12:26:36
111_CF_CFS_test,111,1101,Left,299,299,CF,CFS,incongruent,misaligned,different,2,1,0.659035717319966,M4,M4136.png,M4188.png,M4134.png,M4188.png,0.3,0.3,0.5,2.56191973503883,2018-08-15-12:26:38
111_CF_CFS_test,111,1101,Left,300,300,CF,CFS,incongruent,misaligned,same,1,1,1.2357630296483,F2,F2016.png,F2017.png,F2016.png,F2032.png,0.3,0.3,0.5,3.1452139207131,2018-08-15-12:26:42
111_CF_CFS_test,111,1101,Left,301,301,CF,CFS,congruent,aligned,different,2,1,1.01312691603107,F5,F5033.png,F5068.png,F5078.png,F5076.png,0.3,0.3,0.5,2.92032773585925,2018-08-15-12:26:45
111_CF_CFS_test,111,1101,Left,302,302,CF,CFS,incongruent,misaligned,different,1,0,1.52746449832102,F1,F1015.png,F1059.png,F1046.png,F1059.png,0.3,0.3,0.5,3.43697135691491,2018-08-15-12:26:48
111_CF_CFS_test,111,1101,Left,303,303,CF,CFS,incongruent,misaligned,different,1,0,1.3491203823296,M1,M1122.png,M1186.png,M1119.png,M1186.png,0.3,0.3,0.5,3.25360737264782,2018-08-15-12:26:51
111_CF_CFS_test,111,1101,Left,304,304,CF,CFS,congruent,misaligned,different,2,1,1.313720096,M4,M4134.png,M4136.png,M4188.png,M4197.png,0.3,0.3,0.5,3.22755607410272,2018-08-15-12:26:54
111_CF_CFS_test,111,1101,Left,305,305,CF,CFS,incongruent,aligned,same,1,1,2.35996004644312,M5,M5154.png,M5146.png,M5154.png,M5178.png,0.3,0.3,0.5,4.27031978087143,2018-08-15-12:26:59
111_CF_CFS_test,111,1101,Left,306,306,CF,CFS,incongruent,aligned,same,1,1,1.3562429182075,F5,F5068.png,F5078.png,F5068.png,F5076.png,0.3,0.3,0.5,3.26195343681047,2018-08-15-12:27:02
111_CF_CFS_test,111,1101,Left,307,307,CF,CFS,incongruent,misaligned,different,1,0,0.944911937725919,F2,F2032.png,F2067.png,F2017.png,F2067.png,0.3,0.3,0.5,2.85358992299916,2018-08-15-12:27:05
111_CF_CFS_test,111,1101,Left,308,308,CF,CFS,incongruent,misaligned,different,1,0,0.741581107789898,F1,F1046.png,F1015.png,F1002.png,F1015.png,0.3,0.3,0.5,2.6535300467549,2018-08-15-12:27:08
111_CF_CFS_test,111,1101,Left,309,309,CF,CFS,incongruent,misaligned,same,1,1,0.77913651470044,M3,M3013.png,M3153.png,M3013.png,M3183.png,0.3,0.3,0.5,2.6870050552152,2018-08-15-12:27:10
111_CF_CFS_test,111,1101,Left,310,310,CF,CFS,congruent,aligned,same,1,1,0.67086315740562,M4,M4134.png,M4136.png,M4134.png,M4136.png,0.3,0.3,0.5,2.57845686943074,2018-08-15-12:27:13
111_CF_CFS_test,111,1101,Left,311,311,CF,CFS,congruent,aligned,same,1,1,1.02290336414171,M5,M5146.png,M5178.png,M5146.png,M5178.png,0.3,0.3,0.5,2.92868499792075,2018-08-15-12:27:16
111_CF_CFS_test,111,1101,Left,312,312,CF,CFS,congruent,aligned,different,2,1,0.696676661722449,M1,M1119.png,M1122.png,M1186.png,M1125.png,0.3,0.3,0.5,2.61187001174767,2018-08-15-12:27:18
111_CF_CFS_test,111,1101,Left,313,313,CF,CFS,incongruent,misaligned,different,1,0,0.735774874854542,F1,F1059.png,F1002.png,F1015.png,F1002.png,0.3,0.3,0.5,2.64523857053518,2018-08-15-12:27:21
111_CF_CFS_test,111,1101,Left,314,314,CF,CFS,incongruent,aligned,same,1,1,0.644915147117899,M4,M4134.png,M4136.png,M4134.png,M4188.png,0.3,0.3,0.5,2.56187799274267,2018-08-15-12:27:24
111_CF_CFS_test,111,1101,Left,315,315,CF,CFS,congruent,aligned,same,1,1,0.661757178163498,F2,F2032.png,F2067.png,F2032.png,F2067.png,0.3,0.3,0.5,2.57843223463351,2018-08-15-12:27:26
111_CF_CFS_test,111,1101,Left,316,316,CF,CFS,congruent,aligned,same,1,1,1.28576926290043,M4,M4136.png,M4188.png,M4136.png,M4188.png,0.3,0.3,0.5,3.20365728203797,2018-08-15-12:27:29
111_CF_CFS_test,111,1101,Left,317,317,CF,CFS,incongruent,misaligned,different,2,1,0.772818715545327,M3,M3183.png,M3187.png,M3153.png,M3187.png,0.3,0.3,0.5,2.68682705516676,2018-08-15-12:27:32
111_CF_CFS_test,111,1101,Left,318,318,CF,CFS,congruent,misaligned,same,1,1,1.62481482192925,F3,F3047.png,F3112.png,F3047.png,F3112.png,0.3,0.3,0.5,3.52868568222129,2018-08-15-12:27:36
111_CF_CFS_test,111,1101,Left,319,319,CF,CFS,congruent,misaligned,different,2,1,0.722529855435823,M5,M5146.png,M5178.png,M5152.png,M5154.png,0.3,0.3,0.5,2.63680986213149,2018-08-15-12:27:38
111_CF_CFS_test,111,1101,Left,320,320,CF,CFS,congruent,misaligned,different,1,0,2.11213054931613,M5,M5178.png,M5152.png,M5154.png,M5146.png,0.3,0.3,0.5,4.02822233313964,2018-08-15-12:27:42
111_CF_monocular_test,111,1101,Left,1,1,CF,monocular,incongruent,aligned,different,1,0,1.82067044143605,F3,F3112.png,F3047.png,F3062.png,F3047.png,0.3,0.3,0.5,3.73790896650371,2018-08-15-12:31:17
111_CF_monocular_test,111,1101,Left,2,2,CF,monocular,congruent,misaligned,different,2,1,1.76850659950196,F3,F3112.png,F3047.png,F3079.png,F3062.png,0.3,0.3,0.5,3.68221726865067,2018-08-15-12:31:21
111_CF_monocular_test,111,1101,Left,3,3,CF,monocular,incongruent,misaligned,same,1,1,2.71392171671323,F4,F4020.png,F4040.png,F4020.png,F4064.png,0.3,0.3,0.5,4.63096261165992,2018-08-15-12:31:26
111_CF_monocular_test,111,1101,Left,4,4,CF,monocular,congruent,misaligned,different,2,1,1.11781845037967,M2,M2141.png,M2142.png,M2201.png,M2198.png,0.3,0.3,0.5,3.0254908044999,2018-08-15-12:31:29
111_CF_monocular_test,111,1101,Left,5,5,CF,monocular,incongruent,misaligned,same,1,1,1.69806565803174,M5,M5154.png,M5152.png,M5154.png,M5178.png,0.3,0.3,0.5,3.61678890436997,2018-08-15-12:31:33
111_CF_monocular_test,111,1101,Left,6,6,CF,monocular,incongruent,misaligned,same,1,1,1.46229699833384,F4,F4040.png,F4064.png,F4040.png,F4018.png,0.3,0.3,0.5,3.37157598390695,2018-08-15-12:31:36
111_CF_monocular_test,111,1101,Left,7,7,CF,monocular,congruent,misaligned,different,2,1,0.742042668096474,M4,M4134.png,M4188.png,M4197.png,M4136.png,0.3,0.3,0.5,2.65230669111133,2018-08-15-12:31:39
111_CF_monocular_test,111,1101,Left,8,8,CF,monocular,incongruent,aligned,same,2,0,1.57905576730809,F1,F1015.png,F1059.png,F1015.png,F1046.png,0.3,0.3,0.5,3.49238288634297,2018-08-15-12:31:42
111_CF_monocular_test,111,1101,Left,9,9,CF,monocular,incongruent,aligned,different,1,0,0.934393221266873,F5,F5068.png,F5033.png,F5078.png,F5033.png,0.3,0.3,0.5,2.84189352635167,2018-08-15-12:31:45
111_CF_monocular_test,111,1101,Left,10,10,CF,monocular,incongruent,aligned,different,2,1,0.931762824713587,M1,M1186.png,M1122.png,M1119.png,M1122.png,0.3,0.3,0.5,2.84285120411096,2018-08-15-12:31:48
111_CF_monocular_test,111,1101,Left,11,11,CF,monocular,congruent,misaligned,different,1,0,1.19315542532877,M5,M5154.png,M5152.png,M5178.png,M5146.png,0.3,0.3,0.5,3.10965359026522,2018-08-15-12:31:51
111_CF_monocular_test,111,1101,Left,12,12,CF,monocular,congruent,aligned,different,1,0,1.04385589185131,M1,M1119.png,M1186.png,M1122.png,M1125.png,0.3,0.3,0.5,2.95950244551659,2018-08-15-12:31:54
111_CF_monocular_test,111,1101,Left,13,13,CF,monocular,incongruent,aligned,different,2,1,1.66051654237981,M1,M1122.png,M1125.png,M1186.png,M1125.png,0.3,0.3,0.5,3.57658138826446,2018-08-15-12:31:58
111_CF_monocular_test,111,1101,Left,14,14,CF,monocular,congruent,misaligned,different,1,0,0.700492028409826,M4,M4136.png,M4134.png,M4188.png,M4197.png,0.3,0.3,0.5,2.60973142938201,2018-08-15-12:32:00
111_CF_monocular_test,111,1101,Left,15,15,CF,monocular,congruent,aligned,same,1,1,0.811253894817128,M1,M1186.png,M1122.png,M1186.png,M1122.png,0.3,0.3,0.5,2.72662178121755,2018-08-15-12:32:03
111_CF_monocular_test,111,1101,Left,16,16,CF,monocular,congruent,misaligned,same,1,1,0.733379430913374,F4,F4064.png,F4018.png,F4064.png,F4018.png,0.3,0.3,0.5,2.64350950064909,2018-08-15-12:32:06
111_CF_monocular_test,111,1101,Left,17,17,CF,monocular,congruent,misaligned,different,2,1,0.71484071920986,M3,M3183.png,M3153.png,M3013.png,M3187.png,0.3,0.3,0.5,2.62681395082291,2018-08-15-12:32:08
111_CF_monocular_test,111,1101,Left,18,18,CF,monocular,congruent,misaligned,different,2,1,0.680987032800658,M4,M4197.png,M4136.png,M4134.png,M4188.png,0.3,0.3,0.5,2.59277060853674,2018-08-15-12:32:11
111_CF_monocular_test,111,1101,Left,19,19,CF,monocular,incongruent,misaligned,different,2,1,1.65630296552717,F1,F1046.png,F1002.png,F1059.png,F1002.png,0.3,0.3,0.5,3.56894279775588,2018-08-15-12:32:14
111_CF_monocular_test,111,1101,Left,20,20,CF,monocular,congruent,misaligned,different,1,0,0.808618261219635,F1,F1015.png,F1059.png,F1046.png,F1002.png,0.3,0.3,0.5,2.71892320966981,2018-08-15-12:32:17
111_CF_monocular_test,111,1101,Left,21,21,CF,monocular,congruent,aligned,different,1,0,0.523061898635206,F2,F2016.png,F2017.png,F2032.png,F2067.png,0.3,0.3,0.5,2.43556860989429,2018-08-15-12:32:20
111_CF_monocular_test,111,1101,Left,22,22,CF,monocular,incongruent,aligned,different,2,1,0.616900290940976,M2,M2201.png,M2198.png,M2142.png,M2198.png,0.3,0.3,0.5,2.52728868390295,2018-08-15-12:32:22
111_CF_monocular_test,111,1101,Left,23,23,CF,monocular,congruent,aligned,same,1,1,0.691028792204634,M5,M5178.png,M5146.png,M5178.png,M5146.png,0.3,0.3,0.5,2.602344411579,2018-08-15-12:32:25
111_CF_monocular_test,111,1101,Left,24,24,CF,monocular,incongruent,aligned,same,1,1,0.754146907504946,M1,M1119.png,M1186.png,M1119.png,M1122.png,0.3,0.3,0.5,2.66948048643008,2018-08-15-12:32:27
111_CF_monocular_test,111,1101,Left,25,25,CF,monocular,incongruent,misaligned,same,1,1,3.01439198952812,F1,F1046.png,F1002.png,F1046.png,F1015.png,0.3,0.3,0.5,4.92792200349322,2018-08-15-12:32:32
111_CF_monocular_test,111,1101,Left,26,26,CF,monocular,congruent,aligned,different,2,1,0.856168158440596,F2,F2032.png,F2067.png,F2016.png,F2017.png,0.3,0.3,0.5,2.76939844903427,2018-08-15-12:32:35
111_CF_monocular_test,111,1101,Left,27,27,CF,monocular,congruent,aligned,same,1,1,0.960576062591826,F3,F3047.png,F3079.png,F3047.png,F3079.png,0.3,0.3,0.5,2.87788578261916,2018-08-15-12:32:38
111_CF_monocular_test,111,1101,Left,28,28,CF,monocular,incongruent,aligned,same,1,1,1.54064430117796,M1,M1186.png,M1122.png,M1186.png,M1125.png,0.3,0.3,0.5,3.45285320940457,2018-08-15-12:32:41
111_CF_monocular_test,111,1101,Left,29,29,CF,monocular,incongruent,aligned,different,2,1,0.737632262533225,M4,M4134.png,M4188.png,M4136.png,M4188.png,0.3,0.3,0.5,2.65263943038917,2018-08-15-12:32:44
111_CF_monocular_test,111,1101,Left,30,30,CF,monocular,incongruent,aligned,different,2,1,0.822712734593551,F2,F2017.png,F2032.png,F2016.png,F2032.png,0.3,0.3,0.5,2.73627983331517,2018-08-15-12:32:47
111_CF_monocular_test,111,1101,Left,31,31,CF,monocular,incongruent,misaligned,same,2,0,0.696504073262076,F3,F3079.png,F3062.png,F3079.png,F3112.png,0.3,0.3,0.5,2.6109440088685,2018-08-15-12:32:49
111_CF_monocular_test,111,1101,Left,32,32,CF,monocular,congruent,misaligned,same,1,1,0.543281790403853,F2,F2017.png,F2032.png,F2017.png,F2032.png,0.3,0.3,0.5,2.45290251908136,2018-08-15-12:32:52
111_CF_monocular_test,111,1101,Left,33,33,CF,monocular,congruent,misaligned,same,1,1,0.644431730246652,M4,M4134.png,M4188.png,M4134.png,M4188.png,0.3,0.3,0.5,2.56118582335876,2018-08-15-12:32:54
111_CF_monocular_test,111,1101,Left,34,34,CF,monocular,congruent,misaligned,different,2,1,0.90920140344133,M3,M3187.png,M3183.png,M3153.png,M3013.png,0.3,0.3,0.5,2.81977455738615,2018-08-15-12:32:57
111_CF_monocular_test,111,1101,Left,35,35,CF,monocular,incongruent,misaligned,same,1,1,1.42759897828273,F3,F3047.png,F3079.png,F3047.png,F3062.png,0.3,0.3,0.5,3.34475998018479,2018-08-15-12:33:01
111_CF_monocular_test,111,1101,Left,36,36,CF,monocular,congruent,misaligned,same,1,1,0.636918116953893,M1,M1186.png,M1122.png,M1186.png,M1122.png,0.3,0.3,0.5,2.55284831294375,2018-08-15-12:33:03
111_CF_monocular_test,111,1101,Left,37,37,CF,monocular,congruent,misaligned,same,1,1,0.92602932522459,M1,M1119.png,M1186.png,M1119.png,M1186.png,0.3,0.3,0.5,2.83637254207406,2018-08-15-12:33:06
111_CF_monocular_test,111,1101,Left,38,38,CF,monocular,incongruent,aligned,different,1,0,0.979812945186495,M3,M3183.png,M3153.png,M3187.png,M3153.png,0.3,0.3,0.5,2.89458496353473,2018-08-15-12:33:09
111_CF_monocular_test,111,1101,Left,39,39,CF,monocular,congruent,aligned,same,1,1,0.703207620306785,F1,F1002.png,F1015.png,F1002.png,F1015.png,0.3,0.3,0.5,2.61963373647541,2018-08-15-12:33:12
111_CF_monocular_test,111,1101,Left,40,40,CF,monocular,incongruent,misaligned,different,2,1,0.629678223636802,M2,M2141.png,M2142.png,M2198.png,M2142.png,0.3,0.3,0.5,2.5446524526169,2018-08-15-12:33:14
111_CF_monocular_test,111,1101,Left,41,41,CF,monocular,congruent,misaligned,different,2,1,0.556330903147682,F4,F4040.png,F4064.png,F4018.png,F4020.png,0.3,0.3,0.5,2.46214606724334,2018-08-15-12:33:30
111_CF_monocular_test,111,1101,Left,42,42,CF,monocular,incongruent,misaligned,same,1,1,1.04880440683337,M5,M5178.png,M5146.png,M5178.png,M5154.png,0.3,0.3,0.5,2.96044173965674,2018-08-15-12:33:33
111_CF_monocular_test,111,1101,Left,43,43,CF,monocular,incongruent,misaligned,same,1,1,0.681518786248489,F1,F1002.png,F1015.png,F1002.png,F1059.png,0.3,0.3,0.5,2.59458616106076,2018-08-15-12:33:35
111_CF_monocular_test,111,1101,Left,44,44,CF,monocular,congruent,aligned,different,1,0,0.753004810913808,M3,M3183.png,M3153.png,M3013.png,M3187.png,0.3,0.3,0.5,2.6691707482305,2018-08-15-12:33:38
111_CF_monocular_test,111,1101,Left,45,45,CF,monocular,incongruent,aligned,same,1,1,1.5493728890051,F2,F2032.png,F2067.png,F2032.png,F2016.png,0.3,0.3,0.5,3.46038673210933,2018-08-15-12:33:42
111_CF_monocular_test,111,1101,Left,46,46,CF,monocular,congruent,misaligned,same,1,1,0.442171829708968,M5,M5146.png,M5154.png,M5146.png,M5154.png,0.3,0.3,0.5,2.35272503416127,2018-08-15-12:33:44
111_CF_monocular_test,111,1101,Left,47,47,CF,monocular,congruent,misaligned,same,1,1,0.619146557877684,F1,F1046.png,F1002.png,F1046.png,F1002.png,0.3,0.3,0.5,2.53614136737451,2018-08-15-12:33:46
111_CF_monocular_test,111,1101,Left,48,48,CF,monocular,incongruent,misaligned,different,2,1,0.55700144923776,M4,M4197.png,M4136.png,M4188.png,M4136.png,0.3,0.3,0.5,2.46975514037513,2018-08-15-12:33:49
111_CF_monocular_test,111,1101,Left,49,49,CF,monocular,incongruent,aligned,different,2,1,0.889784734921705,F1,F1059.png,F1046.png,F1015.png,F1046.png,0.3,0.3,0.5,2.79506140736521,2018-08-15-12:33:52
111_CF_monocular_test,111,1101,Left,50,50,CF,monocular,incongruent,aligned,same,1,1,0.720920381987526,F4,F4064.png,F4018.png,F4064.png,F4020.png,0.3,0.3,0.5,2.63666992279377,2018-08-15-12:33:54
111_CF_monocular_test,111,1101,Left,51,51,CF,monocular,incongruent,aligned,different,2,1,0.734719290187059,M4,M4188.png,M4197.png,M4134.png,M4197.png,0.3,0.3,0.5,2.64500298525854,2018-08-15-12:33:57
111_CF_monocular_test,111,1101,Left,52,52,CF,monocular,congruent,aligned,different,2,1,1.54831542056672,F4,F4064.png,F4018.png,F4020.png,F4040.png,0.3,0.3,0.5,3.45342295381488,2018-08-15-12:34:00
111_CF_monocular_test,111,1101,Left,53,53,CF,monocular,congruent,aligned,same,1,1,0.801059431733847,F1,F1046.png,F1002.png,F1046.png,F1002.png,0.3,0.3,0.5,2.71166508992519,2018-08-15-12:34:03
111_CF_monocular_test,111,1101,Left,54,54,CF,monocular,congruent,misaligned,different,2,1,1.18816653664908,M1,M1125.png,M1119.png,M1186.png,M1122.png,0.3,0.3,0.5,3.09506465779032,2018-08-15-12:34:06
111_CF_monocular_test,111,1101,Left,55,55,CF,monocular,incongruent,misaligned,different,1,0,1.01514711450636,F2,F2017.png,F2032.png,F2016.png,F2032.png,0.3,0.3,0.5,2.92825833691131,2018-08-15-12:34:09
111_CF_monocular_test,111,1101,Left,56,56,CF,monocular,incongruent,misaligned,different,1,0,0.945246902544568,M3,M3153.png,M3013.png,M3183.png,M3013.png,0.3,0.3,0.5,2.86164689820544,2018-08-15-12:34:12
111_CF_monocular_test,111,1101,Left,57,57,CF,monocular,congruent,aligned,different,1,0,1.22187001922248,M3,M3013.png,M3187.png,M3183.png,M3153.png,0.3,0.3,0.5,3.1367443404115,2018-08-15-12:34:15
111_CF_monocular_test,111,1101,Left,58,58,CF,monocular,congruent,aligned,same,1,1,0.711986846328728,M1,M1125.png,M1119.png,M1125.png,M1119.png,0.3,0.3,0.5,2.62003938146154,2018-08-15-12:34:18
111_CF_monocular_test,111,1101,Left,59,59,CF,monocular,congruent,aligned,different,1,0,0.422179322793454,F4,F4018.png,F4020.png,F4040.png,F4064.png,0.3,0.3,0.5,2.33664477477123,2018-08-15-12:34:20
111_CF_monocular_test,111,1101,Left,60,60,CF,monocular,congruent,misaligned,same,1,1,1.93581724943306,M3,M3183.png,M3153.png,M3183.png,M3153.png,0.3,0.3,0.5,3.85362242724659,2018-08-15-12:34:24
111_CF_monocular_test,111,1101,Left,61,61,CF,monocular,incongruent,misaligned,different,2,1,0.94911490792947,M4,M4188.png,M4197.png,M4134.png,M4197.png,0.3,0.3,0.5,2.85343629766339,2018-08-15-12:34:27
111_CF_monocular_test,111,1101,Left,62,62,CF,monocular,incongruent,misaligned,different,2,1,2.24207773846774,F4,F4018.png,F4020.png,F4064.png,F4020.png,0.3,0.3,0.5,4.14529980035513,2018-08-15-12:34:31
111_CF_monocular_test,111,1101,Left,63,63,CF,monocular,congruent,aligned,same,1,1,0.643364222346463,F4,F4020.png,F4040.png,F4020.png,F4040.png,0.3,0.3,0.5,2.54504729367909,2018-08-15-12:34:34
111_CF_monocular_test,111,1101,Left,64,64,CF,monocular,congruent,misaligned,same,1,1,0.516445402558929,M3,M3187.png,M3183.png,M3187.png,M3183.png,0.3,0.3,0.5,2.42846220746105,2018-08-15-12:34:36
111_CF_monocular_test,111,1101,Left,65,65,CF,monocular,congruent,misaligned,same,1,1,0.818934714649004,M2,M2141.png,M2142.png,M2141.png,M2142.png,0.3,0.3,0.5,2.72831684455559,2018-08-15-12:34:39
111_CF_monocular_test,111,1101,Left,66,66,CF,monocular,congruent,misaligned,same,1,1,0.732660441271037,F5,F5078.png,F5068.png,F5078.png,F5068.png,0.3,0.3,0.5,2.64502282995636,2018-08-15-12:34:41
111_CF_monocular_test,111,1101,Left,67,67,CF,monocular,incongruent,misaligned,same,1,1,0.530462602438092,F2,F2016.png,F2017.png,F2016.png,F2032.png,0.3,0.3,0.5,2.43677359423418,2018-08-15-12:34:44
111_CF_monocular_test,111,1101,Left,68,68,CF,monocular,incongruent,misaligned,different,2,1,0.76823332647291,M3,M3187.png,M3183.png,M3013.png,M3183.png,0.3,0.3,0.5,2.67018488073518,2018-08-15-12:34:47
111_CF_monocular_test,111,1101,Left,69,69,CF,monocular,congruent,aligned,same,1,1,0.972671893127881,M2,M2201.png,M2198.png,M2201.png,M2198.png,0.3,0.3,0.5,2.87864667175108,2018-08-15-12:34:49
111_CF_monocular_test,111,1101,Left,70,70,CF,monocular,congruent,misaligned,same,1,1,0.888748020519415,M5,M5152.png,M5178.png,M5152.png,M5178.png,0.3,0.3,0.5,2.79506389489325,2018-08-15-12:34:52
111_CF_monocular_test,111,1101,Left,71,71,CF,monocular,congruent,aligned,same,2,0,1.79173575263485,M2,M2141.png,M2142.png,M2141.png,M2142.png,0.3,0.3,0.5,3.70364133103158,2018-08-15-12:34:56
111_CF_monocular_test,111,1101,Left,72,72,CF,monocular,congruent,misaligned,same,1,1,0.715045667040613,M5,M5178.png,M5146.png,M5178.png,M5146.png,0.3,0.3,0.5,2.62018513734711,2018-08-15-12:34:59
111_CF_monocular_test,111,1101,Left,73,73,CF,monocular,congruent,misaligned,same,1,1,0.665542041107074,M1,M1122.png,M1125.png,M1122.png,M1125.png,0.3,0.3,0.5,2.57013475576514,2018-08-15-12:35:01
111_CF_monocular_test,111,1101,Left,74,74,CF,monocular,incongruent,aligned,different,2,1,0.921955043489106,M1,M1119.png,M1186.png,M1125.png,M1186.png,0.3,0.3,0.5,2.82854933545968,2018-08-15-12:35:04
111_CF_monocular_test,111,1101,Left,75,75,CF,monocular,congruent,misaligned,different,2,1,0.872054523592851,F1,F1059.png,F1046.png,F1002.png,F1015.png,0.3,0.3,0.5,2.77865276416924,2018-08-15-12:35:07
111_CF_monocular_test,111,1101,Left,76,76,CF,monocular,incongruent,aligned,same,1,1,0.600193450165534,M5,M5146.png,M5154.png,M5146.png,M5152.png,0.3,0.3,0.5,2.50350139169495,2018-08-15-12:35:09
111_CF_monocular_test,111,1101,Left,77,77,CF,monocular,incongruent,aligned,same,1,1,0.667267845544302,F1,F1059.png,F1046.png,F1059.png,F1002.png,0.3,0.3,0.5,2.57029927750136,2018-08-15-12:35:12
111_CF_monocular_test,111,1101,Left,78,78,CF,monocular,incongruent,misaligned,same,1,1,1.61168113533313,F5,F5076.png,F5078.png,F5076.png,F5068.png,0.3,0.3,0.5,3.5203710958549,2018-08-15-12:35:15
111_CF_monocular_test,111,1101,Left,79,79,CF,monocular,congruent,misaligned,different,2,1,0.72603004960547,M4,M4188.png,M4197.png,M4136.png,M4134.png,0.3,0.3,0.5,2.62852641141126,2018-08-15-12:35:18
111_CF_monocular_test,111,1101,Left,80,80,CF,monocular,incongruent,misaligned,same,2,0,1.9079597936061,M1,M1119.png,M1186.png,M1119.png,M1122.png,0.3,0.3,0.5,3.81212724362013,2018-08-15-12:35:22
111_CF_monocular_test,111,1101,Left,81,81,CF,monocular,incongruent,aligned,same,1,1,1.05265872622022,F3,F3079.png,F3062.png,F3079.png,F3112.png,0.3,0.3,0.5,2.96856785378895,2018-08-15-12:35:45
111_CF_monocular_test,111,1101,Left,82,82,CF,monocular,incongruent,misaligned,different,2,1,0.88529127939546,F1,F1015.png,F1059.png,F1002.png,F1059.png,0.3,0.3,0.5,2.7952450895009,2018-08-15-12:35:48
111_CF_monocular_test,111,1101,Left,83,83,CF,monocular,incongruent,misaligned,same,1,1,0.676758703418272,M3,M3183.png,M3153.png,M3183.png,M3013.png,0.3,0.3,0.5,2.57849630915553,2018-08-15-12:35:51
111_CF_monocular_test,111,1101,Left,84,84,CF,monocular,incongruent,misaligned,different,2,1,0.636549621438462,M2,M2201.png,M2198.png,M2142.png,M2198.png,0.3,0.3,0.5,2.55357513195395,2018-08-15-12:35:53
111_CF_monocular_test,111,1101,Left,85,85,CF,monocular,incongruent,aligned,different,1,0,0.837991099252577,F2,F2067.png,F2016.png,F2032.png,F2016.png,0.3,0.3,0.5,2.74512246187805,2018-08-15-12:35:56
111_CF_monocular_test,111,1101,Left,86,86,CF,monocular,incongruent,aligned,same,1,1,0.727504715966461,F4,F4040.png,F4064.png,F4040.png,F4018.png,0.3,0.3,0.5,2.6368399713283,2018-08-15-12:35:59
111_CF_monocular_test,111,1101,Left,87,87,CF,monocular,congruent,aligned,different,1,0,0.533224936320039,M5,M5178.png,M5146.png,M5154.png,M5152.png,0.3,0.3,0.5,2.43685281583475,2018-08-15-12:36:01
111_CF_monocular_test,111,1101,Left,88,88,CF,monocular,congruent,aligned,same,1,1,0.563038358717677,F5,F5076.png,F5078.png,F5076.png,F5078.png,0.3,0.3,0.5,2.47019275018465,2018-08-15-12:36:04
111_CF_monocular_test,111,1101,Left,89,89,CF,monocular,congruent,aligned,different,2,1,0.80749831189587,M3,M3153.png,M3013.png,M3187.png,M3183.png,0.3,0.3,0.5,2.7126855660872,2018-08-15-12:36:06
111_CF_monocular_test,111,1101,Left,90,90,CF,monocular,incongruent,aligned,same,1,1,1.29021858108081,F2,F2017.png,F2032.png,F2017.png,F2067.png,0.3,0.3,0.5,3.19520408390144,2018-08-15-12:36:10
111_CF_monocular_test,111,1101,Left,91,91,CF,monocular,incongruent,misaligned,different,2,1,1.05761374205395,F5,F5033.png,F5076.png,F5068.png,F5076.png,0.3,0.3,0.5,2.96191482782888,2018-08-15-12:36:13
111_CF_monocular_test,111,1101,Left,92,92,CF,monocular,congruent,aligned,same,1,1,0.833968784232638,M3,M3013.png,M3187.png,M3013.png,M3187.png,0.3,0.3,0.5,2.74509390623734,2018-08-15-12:36:15
111_CF_monocular_test,111,1101,Left,93,93,CF,monocular,incongruent,aligned,different,1,0,0.891767836134932,M1,M1125.png,M1119.png,M1122.png,M1119.png,0.3,0.3,0.5,2.79516652756865,2018-08-15-12:36:18
111_CF_monocular_test,111,1101,Left,94,94,CF,monocular,congruent,aligned,different,1,0,0.435291878157841,F4,F4040.png,F4064.png,F4018.png,F4020.png,0.3,0.3,0.5,2.34508385132813,2018-08-15-12:36:20
111_CF_monocular_test,111,1101,Left,95,95,CF,monocular,congruent,aligned,same,1,1,1.01259634641519,F5,F5078.png,F5068.png,F5078.png,F5068.png,0.3,0.3,0.5,2.92029478409586,2018-08-15-12:36:23
111_CF_monocular_test,111,1101,Left,96,96,CF,monocular,congruent,misaligned,same,1,1,1.08701024083348,F3,F3079.png,F3062.png,F3079.png,F3062.png,0.3,0.3,0.5,2.99515695968421,2018-08-15-12:36:26
111_CF_monocular_test,111,1101,Left,97,97,CF,monocular,incongruent,misaligned,different,2,1,0.654411178274131,M3,M3013.png,M3187.png,M3153.png,M3187.png,0.3,0.3,0.5,2.56166970357572,2018-08-15-12:36:29
111_CF_monocular_test,111,1101,Left,98,98,CF,monocular,incongruent,aligned,same,1,1,0.935197273691301,F3,F3062.png,F3112.png,F3062.png,F3047.png,0.3,0.3,0.5,2.84523085713681,2018-08-15-12:36:32
111_CF_monocular_test,111,1101,Left,99,99,CF,monocular,congruent,misaligned,same,2,0,0.636696403775204,M4,M4136.png,M4134.png,M4136.png,M4134.png,0.3,0.3,0.5,2.54514336079137,2018-08-15-12:36:34
111_CF_monocular_test,111,1101,Left,100,100,CF,monocular,congruent,aligned,same,1,1,0.805712671295623,F2,F2016.png,F2017.png,F2016.png,F2017.png,0.3,0.3,0.5,2.72007376753299,2018-08-15-12:36:37
111_CF_monocular_test,111,1101,Left,101,101,CF,monocular,congruent,aligned,different,2,1,1.18445314296696,M1,M1186.png,M1122.png,M1125.png,M1119.png,0.3,0.3,0.5,3.09526157897926,2018-08-15-12:36:40
111_CF_monocular_test,111,1101,Left,102,102,CF,monocular,congruent,aligned,different,2,1,1.07551502836668,F1,F1059.png,F1046.png,F1002.png,F1015.png,0.3,0.3,0.5,2.98672902920134,2018-08-15-12:36:43
111_CF_monocular_test,111,1101,Left,103,103,CF,monocular,congruent,aligned,different,1,0,0.603537334198336,F5,F5033.png,F5076.png,F5078.png,F5068.png,0.3,0.3,0.5,2.51164558737764,2018-08-15-12:36:46
111_CF_monocular_test,111,1101,Left,104,104,CF,monocular,congruent,misaligned,different,2,1,0.574365917699652,M3,M3013.png,M3187.png,M3183.png,M3153.png,0.3,0.3,0.5,2.47848612325288,2018-08-15-12:36:48
111_CF_monocular_test,111,1101,Left,105,105,CF,monocular,congruent,aligned,different,2,1,0.59455824019642,F5,F5078.png,F5068.png,F5033.png,F5076.png,0.3,0.3,0.5,2.50358120511555,2018-08-15-12:36:51
111_CF_monocular_test,111,1101,Left,106,106,CF,monocular,congruent,misaligned,same,1,1,0.901588908809572,M3,M3013.png,M3187.png,M3013.png,M3187.png,0.3,0.3,0.5,2.81191947842672,2018-08-15-12:36:53
111_CF_monocular_test,111,1101,Left,107,107,CF,monocular,congruent,misaligned,same,1,1,0.380605022362033,M2,M2198.png,M2141.png,M2198.png,M2141.png,0.3,0.3,0.5,2.28685648006376,2018-08-15-12:36:56
111_CF_monocular_test,111,1101,Left,108,108,CF,monocular,incongruent,misaligned,same,1,1,1.14421942619174,M4,M4136.png,M4134.png,M4136.png,M4188.png,0.3,0.3,0.5,3.05371104408823,2018-08-15-12:36:59
111_CF_monocular_test,111,1101,Left,109,109,CF,monocular,congruent,misaligned,same,1,1,0.38142493079522,M4,M4197.png,M4136.png,M4197.png,M4136.png,0.3,0.3,0.5,2.28681311949549,2018-08-15-12:37:01
111_CF_monocular_test,111,1101,Left,110,110,CF,monocular,incongruent,aligned,different,1,0,1.31307864687642,M3,M3013.png,M3187.png,M3153.png,M3187.png,0.3,0.3,0.5,3.22033294613357,2018-08-15-12:37:04
111_CF_monocular_test,111,1101,Left,111,111,CF,monocular,incongruent,aligned,different,2,1,0.511424601454564,M4,M4136.png,M4134.png,M4197.png,M4134.png,0.3,0.3,0.5,2.42019198034723,2018-08-15-12:37:07
111_CF_monocular_test,111,1101,Left,112,112,CF,monocular,incongruent,aligned,different,2,1,1.18986839058834,F5,F5033.png,F5076.png,F5068.png,F5076.png,0.3,0.3,0.5,3.09529458256839,2018-08-15-12:37:10
111_CF_monocular_test,111,1101,Left,113,113,CF,monocular,congruent,misaligned,different,1,0,0.985253524221662,F2,F2032.png,F2067.png,F2016.png,F2017.png,0.3,0.3,0.5,2.89524839232308,2018-08-15-12:37:13
111_CF_monocular_test,111,1101,Left,114,114,CF,monocular,incongruent,misaligned,same,1,1,0.492369677928764,M4,M4188.png,M4197.png,M4188.png,M4136.png,0.3,0.3,0.5,2.40319807574815,2018-08-15-12:37:15
111_CF_monocular_test,111,1101,Left,115,115,CF,monocular,incongruent,misaligned,same,1,1,1.2917652561282,M5,M5146.png,M5154.png,M5146.png,M5152.png,0.3,0.3,0.5,3.1950323246183,2018-08-15-12:37:18
111_CF_monocular_test,111,1101,Left,116,116,CF,monocular,incongruent,misaligned,different,1,0,0.523178821445981,M5,M5146.png,M5154.png,M5178.png,M5154.png,0.3,0.3,0.5,2.42859923695687,2018-08-15-12:37:21
111_CF_monocular_test,111,1101,Left,117,117,CF,monocular,congruent,misaligned,different,2,1,0.577376153116347,F5,F5068.png,F5033.png,F5076.png,F5078.png,0.3,0.3,0.5,2.48693928035573,2018-08-15-12:37:23
111_CF_monocular_test,111,1101,Left,118,118,CF,monocular,incongruent,aligned,same,1,1,1.12516235728708,M4,M4197.png,M4136.png,M4197.png,M4134.png,0.3,0.3,0.5,3.02859792075469,2018-08-15-12:37:26
111_CF_monocular_test,111,1101,Left,119,119,CF,monocular,incongruent,aligned,different,2,1,0.803120595537621,M2,M2142.png,M2201.png,M2141.png,M2201.png,0.3,0.3,0.5,2.71188372375491,2018-08-15-12:37:29
111_CF_monocular_test,111,1101,Left,120,120,CF,monocular,congruent,misaligned,different,2,1,1.53385809871725,F5,F5033.png,F5076.png,F5078.png,F5068.png,0.3,0.3,0.5,3.43710753260348,2018-08-15-12:37:33
111_CF_monocular_test,111,1101,Left,121,121,CF,monocular,congruent,aligned,same,1,1,1.97084456263019,F2,F2017.png,F2032.png,F2017.png,F2032.png,0.3,0.3,0.5,3.87872254888043,2018-08-15-12:37:52
111_CF_monocular_test,111,1101,Left,122,122,CF,monocular,incongruent,misaligned,same,2,0,0.438952540662285,M4,M4134.png,M4188.png,M4134.png,M4197.png,0.3,0.3,0.5,2.34523787121088,2018-08-15-12:37:54
111_CF_monocular_test,111,1101,Left,123,123,CF,monocular,congruent,misaligned,different,2,1,0.84832744977939,F2,F2017.png,F2032.png,F2067.png,F2016.png,0.3,0.3,0.5,2.75352132193075,2018-08-15-12:37:57
111_CF_monocular_test,111,1101,Left,124,124,CF,monocular,incongruent,aligned,same,1,1,0.553422286271598,F3,F3112.png,F3047.png,F3112.png,F3079.png,0.3,0.3,0.5,2.46199077123856,2018-08-15-12:37:59
111_CF_monocular_test,111,1101,Left,125,125,CF,monocular,congruent,aligned,different,2,1,0.622246791051111,M3,M3187.png,M3183.png,M3153.png,M3013.png,0.3,0.3,0.5,2.52855419183925,2018-08-15-12:38:02
111_CF_monocular_test,111,1101,Left,126,126,CF,monocular,congruent,misaligned,different,2,1,0.616381249440565,M1,M1122.png,M1125.png,M1119.png,M1186.png,0.3,0.3,0.5,2.52022431351907,2018-08-15-12:38:04
111_CF_monocular_test,111,1101,Left,127,127,CF,monocular,congruent,aligned,different,1,0,0.642897871941386,F3,F3079.png,F3062.png,F3112.png,F3047.png,0.3,0.3,0.5,2.54524437206055,2018-08-15-12:38:07
111_CF_monocular_test,111,1101,Left,128,128,CF,monocular,congruent,misaligned,different,2,1,1.26022245059994,F5,F5076.png,F5078.png,F5068.png,F5033.png,0.3,0.3,0.5,3.1703466390727,2018-08-15-12:38:10
111_CF_monocular_test,111,1101,Left,129,129,CF,monocular,incongruent,misaligned,different,1,0,1.02859634543893,M1,M1125.png,M1119.png,M1122.png,M1119.png,0.3,0.3,0.5,2.93695553941961,2018-08-15-12:38:13
111_CF_monocular_test,111,1101,Left,130,130,CF,monocular,incongruent,aligned,same,1,1,1.23834146082027,M1,M1125.png,M1119.png,M1125.png,M1186.png,0.3,0.3,0.5,3.1452802978074,2018-08-15-12:38:16
111_CF_monocular_test,111,1101,Left,131,131,CF,monocular,congruent,misaligned,same,1,1,0.767669016380751,F4,F4040.png,F4064.png,F4040.png,F4064.png,0.3,0.3,0.5,2.6700774456458,2018-08-15-12:38:19
111_CF_monocular_test,111,1101,Left,132,132,CF,monocular,incongruent,misaligned,different,2,1,0.748131186691353,M4,M4134.png,M4188.png,M4136.png,M4188.png,0.3,0.3,0.5,2.65358713340174,2018-08-15-12:38:22
111_CF_monocular_test,111,1101,Left,133,133,CF,monocular,congruent,misaligned,different,2,1,0.92923496835283,F2,F2016.png,F2017.png,F2032.png,F2067.png,0.3,0.3,0.5,2.83696519821569,2018-08-15-12:38:24
111_CF_monocular_test,111,1101,Left,134,134,CF,monocular,incongruent,misaligned,same,1,1,0.63101260851181,M1,M1125.png,M1119.png,M1125.png,M1186.png,0.3,0.3,0.5,2.53694293226908,2018-08-15-12:38:27
111_CF_monocular_test,111,1101,Left,135,135,CF,monocular,congruent,misaligned,same,1,1,0.608812892153765,F3,F3047.png,F3079.png,F3047.png,F3079.png,0.3,0.3,0.5,2.51191793875205,2018-08-15-12:38:29
111_CF_monocular_test,111,1101,Left,136,136,CF,monocular,incongruent,aligned,same,1,1,0.603665245888806,F4,F4018.png,F4020.png,F4018.png,F4040.png,0.3,0.3,0.5,2.51192615035052,2018-08-15-12:38:32
111_CF_monocular_test,111,1101,Left,137,137,CF,monocular,incongruent,misaligned,same,1,1,0.72638559581992,F5,F5078.png,F5068.png,F5078.png,F5033.png,0.3,0.3,0.5,2.6370791341551,2018-08-15-12:38:35
111_CF_monocular_test,111,1101,Left,138,138,CF,monocular,incongruent,aligned,different,1,0,0.748324541504189,M5,M5154.png,M5152.png,M5146.png,M5152.png,0.3,0.3,0.5,2.65352935013925,2018-08-15-12:38:37
111_CF_monocular_test,111,1101,Left,139,139,CF,monocular,incongruent,aligned,same,1,1,0.728951326030256,F1,F1002.png,F1015.png,F1002.png,F1059.png,0.3,0.3,0.5,2.64471156596483,2018-08-15-12:38:40
111_CF_monocular_test,111,1101,Left,140,140,CF,monocular,incongruent,aligned,same,1,1,0.678759294361043,M2,M2198.png,M2141.png,M2198.png,M2142.png,0.3,0.3,0.5,2.58688881323542,2018-08-15-12:38:42
111_CF_monocular_test,111,1101,Left,141,141,CF,monocular,congruent,aligned,same,1,1,0.758518557643583,M1,M1122.png,M1125.png,M1122.png,M1125.png,0.3,0.3,0.5,2.6618241041233,2018-08-15-12:38:45
111_CF_monocular_test,111,1101,Left,142,142,CF,monocular,incongruent,misaligned,different,2,1,0.762904288328173,F2,F2016.png,F2017.png,F2067.png,F2017.png,0.3,0.3,0.5,2.67840136253926,2018-08-15-12:38:48
111_CF_monocular_test,111,1101,Left,143,143,CF,monocular,congruent,misaligned,same,1,1,0.983363777551858,F1,F1059.png,F1046.png,F1059.png,F1046.png,0.3,0.3,0.5,2.88686434951251,2018-08-15-12:38:51
111_CF_monocular_test,111,1101,Left,144,144,CF,monocular,congruent,misaligned,same,1,1,0.499142536539694,F4,F4020.png,F4040.png,F4020.png,F4040.png,0.3,0.3,0.5,2.40358094156272,2018-08-15-12:38:53
111_CF_monocular_test,111,1101,Left,145,145,CF,monocular,incongruent,aligned,same,1,1,0.866254647010464,F2,F2067.png,F2016.png,F2067.png,F2017.png,0.3,0.3,0.5,2.77034552014538,2018-08-15-12:38:56
111_CF_monocular_test,111,1101,Left,146,146,CF,monocular,incongruent,misaligned,different,1,0,1.12269408742031,F5,F5068.png,F5033.png,F5078.png,F5033.png,0.3,0.3,0.5,3.02866840364732,2018-08-15-12:38:59
111_CF_monocular_test,111,1101,Left,147,147,CF,monocular,incongruent,aligned,different,1,0,1.17671785657785,M3,M3187.png,M3183.png,M3013.png,M3183.png,0.3,0.3,0.5,3.08700155165025,2018-08-15-12:39:02
111_CF_monocular_test,111,1101,Left,148,148,CF,monocular,congruent,aligned,same,1,1,0.596114680400206,F3,F3112.png,F3047.png,F3112.png,F3047.png,0.3,0.3,0.5,2.51179031681386,2018-08-15-12:39:05
111_CF_monocular_test,111,1101,Left,149,149,CF,monocular,congruent,misaligned,different,1,0,0.951187652434783,M5,M5152.png,M5178.png,M5146.png,M5154.png,0.3,0.3,0.5,2.85358855439972,2018-08-15-12:39:07
111_CF_monocular_test,111,1101,Left,150,150,CF,monocular,incongruent,misaligned,different,1,0,0.764286179650298,F4,F4064.png,F4018.png,F4040.png,F4018.png,0.3,0.3,0.5,2.67024201977983,2018-08-15-12:39:10
111_CF_monocular_test,111,1101,Left,151,151,CF,monocular,congruent,aligned,different,2,1,0.896671924020666,F5,F5076.png,F5078.png,F5068.png,F5033.png,0.3,0.3,0.5,2.80372019659899,2018-08-15-12:39:13
111_CF_monocular_test,111,1101,Left,152,152,CF,monocular,incongruent,aligned,same,1,1,0.935731619462786,M1,M1122.png,M1125.png,M1122.png,M1119.png,0.3,0.3,0.5,2.84530348540829,2018-08-15-12:39:16
111_CF_monocular_test,111,1101,Left,153,153,CF,monocular,congruent,misaligned,same,1,1,0.789233018098457,F5,F5076.png,F5078.png,F5076.png,F5078.png,0.3,0.3,0.5,2.69523333772486,2018-08-15-12:39:18
111_CF_monocular_test,111,1101,Left,154,154,CF,monocular,incongruent,misaligned,same,1,1,0.584639365029943,F3,F3112.png,F3047.png,F3112.png,F3079.png,0.3,0.3,0.5,2.48699753832807,2018-08-15-12:39:21
111_CF_monocular_test,111,1101,Left,155,155,CF,monocular,congruent,misaligned,different,2,1,0.612478686907707,M1,M1186.png,M1122.png,M1125.png,M1119.png,0.3,0.3,0.5,2.52023452562025,2018-08-15-12:39:23
111_CF_monocular_test,111,1101,Left,156,156,CF,monocular,congruent,aligned,different,2,1,1.08689219909411,M5,M5154.png,M5152.png,M5178.png,M5146.png,0.3,0.3,0.5,2.99527456679516,2018-08-15-12:39:26
111_CF_monocular_test,111,1101,Left,157,157,CF,monocular,congruent,aligned,same,1,1,0.710282162711337,F1,F1015.png,F1059.png,F1015.png,F1059.png,0.3,0.3,0.5,2.62029378384523,2018-08-15-12:39:29
111_CF_monocular_test,111,1101,Left,158,158,CF,monocular,congruent,misaligned,same,1,1,0.676758401349616,M5,M5154.png,M5152.png,M5154.png,M5152.png,0.3,0.3,0.5,2.58686700811631,2018-08-15-12:39:32
111_CF_monocular_test,111,1101,Left,159,159,CF,monocular,incongruent,aligned,different,2,1,0.684566947913481,M2,M2141.png,M2142.png,M2198.png,M2142.png,0.3,0.3,0.5,2.58687683798689,2018-08-15-12:39:34
111_CF_monocular_test,111,1101,Left,160,160,CF,monocular,incongruent,aligned,different,1,0,0.740294793420617,F4,F4020.png,F4040.png,F4018.png,F4040.png,0.3,0.3,0.5,2.64515797919375,2018-08-15-12:39:37
111_CF_monocular_test,111,1101,Left,161,161,CF,monocular,incongruent,misaligned,different,2,1,0.835765413713489,F4,F4020.png,F4040.png,F4018.png,F4040.png,0.3,0.3,0.5,2.74790321946057,2018-08-15-12:39:56
111_CF_monocular_test,111,1101,Left,162,162,CF,monocular,congruent,aligned,different,2,1,0.693219578448407,F2,F2067.png,F2016.png,F2017.png,F2032.png,0.3,0.3,0.5,2.60365474116134,2018-08-15-12:39:58
111_CF_monocular_test,111,1101,Left,163,163,CF,monocular,congruent,misaligned,different,2,1,0.500328770478518,F5,F5078.png,F5068.png,F5033.png,F5076.png,0.3,0.3,0.5,2.40370069405071,2018-08-15-12:40:01
111_CF_monocular_test,111,1101,Left,164,164,CF,monocular,congruent,aligned,different,2,1,1.00344387485893,F1,F1015.png,F1059.png,F1046.png,F1002.png,0.3,0.3,0.5,2.91195523309761,2018-08-15-12:40:03
111_CF_monocular_test,111,1101,Left,165,165,CF,monocular,congruent,misaligned,same,1,1,0.470217862566642,F3,F3112.png,F3047.png,F3112.png,F3047.png,0.3,0.3,0.5,2.37852290437422,2018-08-15-12:40:06
111_CF_monocular_test,111,1101,Left,166,166,CF,monocular,incongruent,misaligned,different,2,1,0.8543271018616,M1,M1122.png,M1125.png,M1186.png,M1125.png,0.3,0.3,0.5,2.7619720839848,2018-08-15-12:40:09
111_CF_monocular_test,111,1101,Left,167,167,CF,monocular,incongruent,misaligned,different,2,1,1.2630498207418,F3,F3112.png,F3047.png,F3062.png,F3047.png,0.3,0.3,0.5,3.17030069849989,2018-08-15-12:40:12
111_CF_monocular_test,111,1101,Left,168,168,CF,monocular,congruent,misaligned,different,2,1,0.639407600119739,F3,F3079.png,F3062.png,F3112.png,F3047.png,0.3,0.3,0.5,2.54521220996412,2018-08-15-12:40:14
111_CF_monocular_test,111,1101,Left,169,169,CF,monocular,incongruent,aligned,same,1,1,0.608894625914218,M3,M3013.png,M3187.png,M3013.png,M3183.png,0.3,0.3,0.5,2.51193744129978,2018-08-15-12:40:17
111_CF_monocular_test,111,1101,Left,170,170,CF,monocular,congruent,aligned,different,2,1,0.675728529946355,M2,M2198.png,M2141.png,M2142.png,M2201.png,0.3,0.3,0.5,2.5783737269885,2018-08-15-12:40:19
111_CF_monocular_test,111,1101,Left,171,171,CF,monocular,incongruent,misaligned,different,2,1,0.6674718193226,F3,F3062.png,F3112.png,F3079.png,F3112.png,0.3,0.3,0.5,2.57821531155332,2018-08-15-12:40:22
111_CF_monocular_test,111,1101,Left,172,172,CF,monocular,incongruent,misaligned,different,2,1,0.884007874866256,M5,M5152.png,M5178.png,M5154.png,M5178.png,0.3,0.3,0.5,2.78690763148461,2018-08-15-12:40:25
111_CF_monocular_test,111,1101,Left,173,173,CF,monocular,incongruent,misaligned,same,1,1,1.78760677930222,M2,M2141.png,M2142.png,M2141.png,M2201.png,0.3,0.3,0.5,3.69545813025252,2018-08-15-12:40:29
111_CF_monocular_test,111,1101,Left,174,174,CF,monocular,congruent,aligned,different,2,1,1.83881533852582,M2,M2142.png,M2201.png,M2198.png,M2141.png,0.3,0.3,0.5,3.74539799739614,2018-08-15-12:40:32
111_CF_monocular_test,111,1101,Left,175,175,CF,monocular,incongruent,misaligned,different,2,1,0.728093213911052,F5,F5076.png,F5078.png,F5033.png,F5078.png,0.3,0.3,0.5,2.63690233509988,2018-08-15-12:40:35
111_CF_monocular_test,111,1101,Left,176,176,CF,monocular,congruent,misaligned,same,2,0,0.773560746347357,M3,M3153.png,M3013.png,M3153.png,M3013.png,0.3,0.3,0.5,2.68681063196891,2018-08-15-12:40:38
111_CF_monocular_test,111,1101,Left,177,177,CF,monocular,incongruent,misaligned,same,1,1,0.625706204660673,F3,F3062.png,F3112.png,F3062.png,F3047.png,0.3,0.3,0.5,2.5286220423277,2018-08-15-12:40:40
111_CF_monocular_test,111,1101,Left,178,178,CF,monocular,congruent,aligned,same,1,1,0.659870563241384,M5,M5152.png,M5178.png,M5152.png,M5178.png,0.3,0.3,0.5,2.57018163030989,2018-08-15-12:40:43
111_CF_monocular_test,111,1101,Left,179,179,CF,monocular,incongruent,misaligned,same,1,1,1.80415696778982,M1,M1122.png,M1125.png,M1122.png,M1119.png,0.3,0.3,0.5,3.71204556069006,2018-08-15-12:40:46
111_CF_monocular_test,111,1101,Left,180,180,CF,monocular,incongruent,misaligned,different,1,0,0.558815596213208,F3,F3079.png,F3062.png,F3047.png,F3062.png,0.3,0.3,0.5,2.46282762997816,2018-08-15-12:40:49
111_CF_monocular_test,111,1101,Left,181,181,CF,monocular,congruent,misaligned,different,1,0,0.507647410686332,M2,M2201.png,M2198.png,M2141.png,M2142.png,0.3,0.3,0.5,2.41192150669394,2018-08-15-12:40:51
111_CF_monocular_test,111,1101,Left,182,182,CF,monocular,incongruent,misaligned,same,1,1,0.618132083222918,M3,M3153.png,M3013.png,M3153.png,M3187.png,0.3,0.3,0.5,2.52845028304364,2018-08-15-12:40:54
111_CF_monocular_test,111,1101,Left,183,183,CF,monocular,congruent,aligned,same,1,1,0.54060426963224,F3,F3079.png,F3062.png,F3079.png,F3062.png,0.3,0.3,0.5,2.4452657564334,2018-08-15-12:40:56
111_CF_monocular_test,111,1101,Left,184,184,CF,monocular,congruent,misaligned,same,1,1,0.322211720679661,M2,M2142.png,M2201.png,M2142.png,M2201.png,0.3,0.3,0.5,2.2285594427658,2018-08-15-12:40:59
111_CF_monocular_test,111,1101,Left,185,185,CF,monocular,congruent,misaligned,different,2,1,0.736333211584679,M5,M5178.png,M5146.png,M5154.png,M5152.png,0.3,0.3,0.5,2.6452968920803,2018-08-15-12:41:01
111_CF_monocular_test,111,1101,Left,186,186,CF,monocular,congruent,aligned,same,1,1,0.430024479403983,M5,M5146.png,M5154.png,M5146.png,M5154.png,0.3,0.3,0.5,2.33667730678371,2018-08-15-12:41:04
111_CF_monocular_test,111,1101,Left,187,187,CF,monocular,congruent,misaligned,different,2,1,0.927626521355705,M1,M1119.png,M1186.png,M1122.png,M1125.png,0.3,0.3,0.5,2.83680746708069,2018-08-15-12:41:06
111_CF_monocular_test,111,1101,Left,188,188,CF,monocular,incongruent,misaligned,same,1,1,0.813321060129056,M2,M2201.png,M2198.png,M2201.png,M2141.png,0.3,0.3,0.5,2.72149437419921,2018-08-15-12:41:09
111_CF_monocular_test,111,1101,Left,189,189,CF,monocular,incongruent,aligned,different,1,0,0.799772605704675,F5,F5076.png,F5078.png,F5033.png,F5078.png,0.3,0.3,0.5,2.70350647154737,2018-08-15-12:41:12
111_CF_monocular_test,111,1101,Left,190,190,CF,monocular,congruent,aligned,different,1,0,0.722538751334469,F1,F1002.png,F1015.png,F1059.png,F1046.png,0.3,0.3,0.5,2.63684305067727,2018-08-15-12:41:14
111_CF_monocular_test,111,1101,Left,191,191,CF,monocular,congruent,aligned,different,2,1,1.23255844206506,F4,F4020.png,F4040.png,F4064.png,F4018.png,0.3,0.3,0.5,3.13697460733965,2018-08-15-12:41:18
111_CF_monocular_test,111,1101,Left,192,192,CF,monocular,congruent,misaligned,different,1,0,0.738259620697136,F1,F1046.png,F1002.png,F1015.png,F1059.png,0.3,0.3,0.5,2.64526334906805,2018-08-15-12:41:20
111_CF_monocular_test,111,1101,Left,193,193,CF,monocular,congruent,aligned,same,1,1,0.655398136054828,F5,F5068.png,F5033.png,F5068.png,F5033.png,0.3,0.3,0.5,2.57016726001166,2018-08-15-12:41:23
111_CF_monocular_test,111,1101,Left,194,194,CF,monocular,incongruent,aligned,different,1,0,0.360397987416036,F4,F4064.png,F4018.png,F4040.png,F4018.png,0.3,0.3,0.5,2.27023722967988,2018-08-15-12:41:25
111_CF_monocular_test,111,1101,Left,195,195,CF,monocular,incongruent,misaligned,different,1,0,0.548718408515015,F2,F2067.png,F2016.png,F2032.png,F2016.png,0.3,0.3,0.5,2.45361524209693,2018-08-15-12:41:28
111_CF_monocular_test,111,1101,Left,196,196,CF,monocular,incongruent,misaligned,different,2,1,0.609920773748854,F4,F4040.png,F4064.png,F4020.png,F4064.png,0.3,0.3,0.5,2.51186730055724,2018-08-15-12:41:30
111_CF_monocular_test,111,1101,Left,197,197,CF,monocular,incongruent,misaligned,same,1,1,0.996677174947763,M4,M4197.png,M4136.png,M4197.png,M4134.png,0.3,0.3,0.5,2.90358350768747,2018-08-15-12:41:33
111_CF_monocular_test,111,1101,Left,198,198,CF,monocular,congruent,aligned,same,1,1,0.599723900166282,F1,F1059.png,F1046.png,F1059.png,F1046.png,0.3,0.3,0.5,2.50360540528527,2018-08-15-12:41:35
111_CF_monocular_test,111,1101,Left,199,199,CF,monocular,congruent,misaligned,same,1,1,0.53086565509966,F2,F2032.png,F2067.png,F2032.png,F2067.png,0.3,0.3,0.5,2.43698230571408,2018-08-15-12:41:38
111_CF_monocular_test,111,1101,Left,200,200,CF,monocular,congruent,aligned,different,2,1,0.6726970812324,M4,M4134.png,M4188.png,M4197.png,M4136.png,0.3,0.3,0.5,2.57862486506474,2018-08-15-12:41:41
111_CF_monocular_test,111,1101,Left,201,201,CF,monocular,congruent,misaligned,different,2,1,0.608979519187415,F3,F3062.png,F3112.png,F3047.png,F3079.png,0.3,0.3,0.5,2.51364784898851,2018-08-15-12:42:00
