Experiment,ExperimentNum,Participant,DominantEye,SubTrial,TrialType,Condition,Congruency,Alignment,SameDifferent,thisResponse,isCorrect,reactionTime,FaceGroup,StudyUpper,StudyLower,TargetUpper,TargetLower,TargetLower2,studyDuration,targetDuration,maskDuration,trialDuration,trialEndTime,Trial,ChoseFace,MatchStudy
112_CF_CFS_catch_test,112,1205,Right,1,Catch,CFS,incongruent,aligned,Right,4,0,21.5714463142875,F4,F4064.png,F4040.png,F4064.png,F4018.png,F4020.png,0.3,0.3,0.5,21.577335379383,2019-01-31-15:10:27,1,F4020.png,0
112_CF_CFS_catch_test,112,1205,Right,2,Catch,CFS,incongruent,aligned,Left,4,1,4.97102307622561,F1,F1046.png,F1015.png,F1002.png,F1015.png,F1059.png,0.3,0.3,0.5,4.97561334448733,2019-01-31-15:10:50,7,F1015.png,1
112_CF_CFS_catch_test,112,1205,Right,3,Catch,CFS,congruent,aligned,Right,4,0,4.31073645817833,F2,F2032.png,F2017.png,F2032.png,F2017.png,F2016.png,0.3,0.3,0.5,4.31725165557248,2019-01-31-15:12:09,32,F2016.png,0
112_CF_CFS_catch_test,112,1205,Right,4,Catch,CFS,incongruent,aligned,Right,5,1,3.14053727625605,M4,M4134.png,M4197.png,M4188.png,M4197.png,M4136.png,0.3,0.3,0.5,3.15036789549401,2019-01-31-15:13:39,59,M4197.png,1
112_CF_CFS_catch_test,112,1205,Right,5,Catch,CFS,incongruent,aligned,Left,4,1,2.43559100217101,F3,F3112.png,F3062.png,F3079.png,F3062.png,F3047.png,0.3,0.3,0.5,2.44194162599376,2019-01-31-15:14:25,77,F3062.png,1
112_CF_CFS_catch_test,112,1205,Right,6,Catch,CFS,incongruent,misaligned,Left,5,0,4.76507379294185,F4,F4064.png,F4040.png,F4064.png,F4018.png,F4020.png,0.3,0.3,0.5,4.7755257543954,2019-01-31-15:17:59,149,F4020.png,0
112_CF_CFS_catch_test,112,1205,Right,7,Catch,CFS,incongruent,misaligned,Left,4,1,2.19504294822787,F1,F1046.png,F1015.png,F1002.png,F1015.png,F1059.png,0.3,0.3,0.5,2.20024395209225,2019-01-31-15:18:34,162,F1015.png,1
112_CF_CFS_catch_test,112,1205,Right,8,Catch,CFS,congruent,misaligned,Right,5,1,2.27552900480896,F2,F2032.png,F2017.png,F2032.png,F2017.png,F2016.png,0.3,0.3,0.5,2.28360097922996,2019-01-31-15:21:12,209,F2017.png,1
112_CF_CFS_catch_test,112,1205,Right,9,Catch,CFS,incongruent,misaligned,Left,5,0,1.58028059622848,M4,M4134.png,M4197.png,M4188.png,M4197.png,M4136.png,0.3,0.3,0.5,1.58345231557746,2019-01-31-15:21:28,215,M4136.png,0
112_CF_CFS_catch_test,112,1205,Right,10,Catch,CFS,incongruent,misaligned,Right,5,1,2.07092470844646,F3,F3112.png,F3062.png,F3079.png,F3062.png,F3047.png,0.3,0.3,0.5,2.07518514526782,2019-01-31-15:24:00,271,F3062.png,1
112_CF_monocular_catch_test,112,1205,Right,1,Catch,monocular,incongruent,aligned,Right,4,0,3.26012341307114,M2,M2142.png,M2141.png,M2201.png,M2141.png,M2198.png,0.3,0.3,0.5,3.26720589317097,2019-01-31-15:29:24,25,M2198.png,0
112_CF_monocular_catch_test,112,1205,Right,2,Catch,monocular,incongruent,aligned,Right,4,0,2.14560586853599,M3,M3187.png,M3183.png,M3153.png,M3183.png,M3013.png,0.3,0.3,0.5,2.15031691532317,2019-01-31-15:31:27,68,M3013.png,0
112_CF_monocular_catch_test,112,1205,Right,3,Catch,monocular,incongruent,aligned,Right,4,0,1.71515120410731,F3,F3062.png,F3079.png,F3112.png,F3079.png,F3047.png,0.3,0.3,0.5,1.72521311593209,2019-01-31-15:32:32,89,F3047.png,0
112_CF_monocular_catch_test,112,1205,Right,4,Catch,monocular,incongruent,aligned,Left,5,0,3.17590280236982,M4,M4136.png,M4134.png,M4197.png,M4134.png,M4188.png,0.3,0.3,0.5,3.18370790072913,2019-01-31-15:32:48,94,M4188.png,0
112_CF_monocular_catch_test,112,1205,Right,5,Catch,monocular,congruent,aligned,Right,5,1,2.27495111549069,M1,M1122.png,M1119.png,M1125.png,M1186.png,M1122.png,0.3,0.3,0.5,2.28363656270494,2019-01-31-15:35:04,140,M1186.png,0
112_CF_monocular_catch_test,112,1205,Right,6,Catch,monocular,incongruent,misaligned,Left,5,0,1.80031511904235,M2,M2142.png,M2141.png,M2201.png,M2141.png,M2198.png,0.3,0.3,0.5,1.80858896125346,2019-01-31-15:35:21,146,M2198.png,0
112_CF_monocular_catch_test,112,1205,Right,7,Catch,monocular,incongruent,misaligned,Right,4,0,2.08538460090904,M3,M3187.png,M3183.png,M3153.png,M3183.png,M3013.png,0.3,0.3,0.5,2.09187311069718,2019-01-31-15:41:11,264,M3013.png,0
112_CF_monocular_catch_test,112,1205,Right,8,Catch,monocular,incongruent,misaligned,Left,5,0,1.80577341880235,F3,F3062.png,F3079.png,F3112.png,F3079.png,F3047.png,0.3,0.3,0.5,1.81690112413025,2019-01-31-15:41:20,267,F3047.png,0
112_CF_monocular_catch_test,112,1205,Right,9,Catch,monocular,incongruent,misaligned,Left,5,0,1.86079505116004,M4,M4136.png,M4134.png,M4197.png,M4134.png,M4188.png,0.3,0.3,0.5,1.86690685512212,2019-01-31-15:42:54,298,M4188.png,0
112_CF_monocular_catch_test,112,1205,Right,10,Catch,monocular,congruent,misaligned,Left,4,1,2.70536369561796,M1,M1122.png,M1119.png,M1125.png,M1186.png,M1122.png,0.3,0.3,0.5,2.70860110753574,2019-01-31-15:43:34,314,M1186.png,0
112_catch_test,112,1205,Right,1,Catch,monocular,incongruent,aligned,Right,4,0,2.96580222773082,F4,F4040.png,F4020.png,F4040.png,F4018.png,F4064.png,0.3,0.3,0.5,2.97546587835586,2019-01-31-15:45:56,1,F4064.png,0
112_catch_test,112,1205,Right,2,Catch,monocular,incongruent,aligned,Left,4,1,1.97026829597962,F1,F1002.png,F1059.png,F1015.png,F1059.png,F1046.png,0.3,0.3,0.5,1.97514596923065,2019-01-31-15:46:00,2,F1059.png,1
112_catch_test,112,1205,Right,3,Catch,monocular,congruent,aligned,Left,4,1,3.88522481742075,F2,F2016.png,F2032.png,F2016.png,F2032.png,F2017.png,0.3,0.3,0.5,3.8922138908988,2019-01-31-15:46:06,3,F2032.png,1
112_catch_test,112,1205,Right,4,Catch,monocular,incongruent,aligned,Left,5,0,2.30527986916195,M4,M4134.png,M4136.png,M4197.png,M4136.png,M4188.png,0.3,0.3,0.5,2.30853815215687,2019-01-31-15:46:10,4,M4188.png,0
112_catch_test,112,1205,Right,5,Catch,monocular,incongruent,aligned,Left,4,1,3.02562010192651,F3,F3047.png,F3062.png,F3079.png,F3062.png,F3112.png,0.3,0.3,0.5,3.03358943170815,2019-01-31-15:46:16,5,F3062.png,1
112_catch_test,112,1205,Right,6,Catch,monocular,incongruent,misaligned,Left,5,0,3.43936661414682,F4,F4040.png,F4020.png,F4040.png,F4018.png,F4064.png,0.3,0.3,0.5,3.45037388309765,2019-01-31-15:46:21,6,F4064.png,0
112_catch_test,112,1205,Right,7,Catch,monocular,incongruent,misaligned,Left,4,1,1.87522791386755,F1,F1002.png,F1059.png,F1015.png,F1059.png,F1046.png,0.3,0.3,0.5,1.8834938866562,2019-01-31-15:46:25,7,F1059.png,1
112_catch_test,112,1205,Right,8,Catch,monocular,congruent,misaligned,Left,5,0,1.37584703211587,F2,F2016.png,F2032.png,F2016.png,F2032.png,F2017.png,0.3,0.3,0.5,1.38341296846602,2019-01-31-15:46:29,8,F2017.png,0
112_catch_test,112,1205,Right,9,Catch,monocular,incongruent,misaligned,Right,5,1,1.47568126102351,M4,M4134.png,M4136.png,M4197.png,M4136.png,M4188.png,0.3,0.3,0.5,1.48346719905021,2019-01-31-15:46:32,9,M4136.png,1
112_catch_test,112,1205,Right,10,Catch,monocular,incongruent,misaligned,Right,5,1,2.6904713270751,F3,F3047.png,F3062.png,F3079.png,F3062.png,F3112.png,0.3,0.3,0.5,2.70035908516229,2019-01-31-15:46:37,10,F3062.png,1
112_catch_test,112,1205,Right,11,Catch,monocular,incongruent,aligned,Right,4,0,1.38552642158538,M2,M2141.png,M2198.png,M2142.png,M2198.png,M2201.png,0.3,0.3,0.5,1.39193521070365,2019-01-31-15:46:41,11,M2201.png,0
112_catch_test,112,1205,Right,12,Catch,monocular,incongruent,aligned,Right,4,0,1.69051512212127,M3,M3187.png,M3013.png,M3183.png,M3013.png,M3153.png,0.3,0.3,0.5,1.70021675126281,2019-01-31-15:46:44,12,M3153.png,0
112_catch_test,112,1205,Right,13,Catch,monocular,incongruent,aligned,Right,5,1,1.72049898980549,F3,F3047.png,F3062.png,F3079.png,F3062.png,F3112.png,0.3,0.3,0.5,1.72521414237826,2019-01-31-15:46:48,13,F3062.png,1
112_catch_test,112,1205,Right,14,Catch,monocular,incongruent,aligned,Left,4,1,1.55032238970443,M4,M4188.png,M4197.png,M4136.png,M4197.png,M4134.png,0.3,0.3,0.5,1.55859315257612,2019-01-31-15:46:52,14,M4197.png,1
112_catch_test,112,1205,Right,15,Catch,monocular,congruent,aligned,Right,5,1,1.99000446504169,M1,M1119.png,M1125.png,M1186.png,M1122.png,M1119.png,0.3,0.3,0.5,2.000195366963,2019-01-31-15:46:56,15,M1122.png,0
112_catch_test,112,1205,Right,16,Catch,monocular,incongruent,misaligned,Right,5,1,2.60508672616652,M2,M2141.png,M2198.png,M2142.png,M2198.png,M2201.png,0.3,0.3,0.5,2.60864267861461,2019-01-31-15:47:01,16,M2198.png,1
112_catch_test,112,1205,Right,17,Catch,monocular,incongruent,misaligned,Left,4,1,3.15035865747632,M3,M3187.png,M3013.png,M3183.png,M3013.png,M3153.png,0.3,0.3,0.5,3.15861984018193,2019-01-31-15:47:06,17,M3013.png,1
112_catch_test,112,1205,Right,18,Catch,monocular,incongruent,misaligned,Right,5,1,2.58010575819299,F3,F3047.png,F3062.png,F3079.png,F3062.png,F3112.png,0.3,0.3,0.5,2.58361449410722,2019-01-31-15:47:11,18,F3062.png,1
112_catch_test,112,1205,Right,19,Catch,monocular,incongruent,misaligned,Right,5,1,2.41536487603071,M4,M4188.png,M4197.png,M4136.png,M4197.png,M4134.png,0.3,0.3,0.5,2.42527418949203,2019-01-31-15:47:15,19,M4197.png,1
112_catch_test,112,1205,Right,20,Catch,monocular,congruent,misaligned,Left,5,0,3.41540559173791,M1,M1119.png,M1125.png,M1186.png,M1122.png,M1119.png,0.3,0.3,0.5,3.42529608701534,2019-01-31-15:47:21,20,M1119.png,0
112_CF_CFS_catch_test,112,1206,Right,1,Catch,CFS,congruent,aligned,Right,5,1,9.0337686066066,F1,F1059.png,F1046.png,F1059.png,F1046.png,F1015.png,0.3,0.3,0.5,9.04267719579775,2019-02-01-10:02:59,10,F1046.png,1
112_CF_CFS_catch_test,112,1206,Right,2,Catch,CFS,congruent,aligned,Right,4,0,5.47619568992206,M1,M1119.png,M1125.png,M1122.png,M1186.png,M1119.png,0.3,0.3,0.5,5.48393514867314,2019-02-01-10:04:16,35,M1119.png,0
112_CF_CFS_catch_test,112,1206,Right,3,Catch,CFS,congruent,aligned,Right,4,0,4.12539736577855,M3,M3153.png,M3187.png,M3013.png,M3183.png,M3153.png,0.3,0.3,0.5,4.13388442476707,2019-02-01-10:10:08,137,M3153.png,0
112_CF_CFS_catch_test,112,1206,Right,4,Catch,CFS,congruent,aligned,Right,4,0,4.27029050342412,F5,F5076.png,F5078.png,F5076.png,F5078.png,F5033.png,0.3,0.3,0.5,4.2755421812476,2019-02-01-10:14:16,206,F5033.png,0
112_CF_CFS_catch_test,112,1206,Right,5,Catch,CFS,congruent,aligned,Left,4,1,3.27654097149934,M2,M2141.png,M2201.png,M2141.png,M2201.png,M2142.png,0.3,0.3,0.5,3.28368371866509,2019-02-01-10:14:38,212,M2201.png,1
112_CF_CFS_catch_test,112,1206,Right,6,Catch,CFS,congruent,misaligned,Left,5,0,3.06015496025066,F1,F1059.png,F1046.png,F1059.png,F1046.png,F1015.png,0.3,0.3,0.5,3.06708625801275,2019-02-01-10:16:00,239,F1015.png,0
112_CF_CFS_catch_test,112,1206,Right,7,Catch,CFS,congruent,misaligned,Left,5,0,3.42529762872141,M1,M1119.png,M1125.png,M1122.png,M1186.png,M1119.png,0.3,0.3,0.5,3.43380003343259,2019-02-01-10:16:17,244,M1119.png,0
112_CF_CFS_catch_test,112,1206,Right,8,Catch,CFS,congruent,misaligned,Left,5,0,3.75036139714007,M3,M3153.png,M3187.png,M3013.png,M3183.png,M3153.png,0.3,0.3,0.5,3.7588819869402,2019-02-01-10:18:44,281,M3153.png,0
112_CF_CFS_catch_test,112,1206,Right,9,Catch,CFS,congruent,misaligned,Right,4,0,2.25563480156075,F5,F5076.png,F5078.png,F5076.png,F5078.png,F5033.png,0.3,0.3,0.5,2.25859714611715,2019-02-01-10:19:01,286,F5033.png,0
112_CF_CFS_catch_test,112,1206,Right,10,Catch,CFS,congruent,misaligned,Left,5,0,2.6408210258719,M2,M2141.png,M2201.png,M2141.png,M2201.png,M2142.png,0.3,0.3,0.5,2.65033741332195,2019-02-01-10:21:16,314,M2142.png,0
112_CF_monocular_catch_test,112,1206,Right,1,Catch,monocular,incongruent,aligned,Left,4,1,2.89017051101973,F4,F4064.png,F4020.png,F4064.png,F4040.png,F4018.png,0.3,0.3,0.5,2.90048773644776,2019-02-01-10:24:18,16,F4040.png,0
112_CF_monocular_catch_test,112,1206,Right,2,Catch,monocular,congruent,aligned,Right,5,1,4.30533762533332,F2,F2032.png,F2067.png,F2032.png,F2067.png,F2016.png,0.3,0.3,0.5,4.30879916840104,2019-02-01-10:28:18,92,F2067.png,1
112_CF_monocular_catch_test,112,1206,Right,3,Catch,monocular,congruent,aligned,Left,5,0,11.5801634455988,M4,M4136.png,M4134.png,M4136.png,M4134.png,M4197.png,0.3,0.3,0.5,11.5847585353877,2019-02-01-10:31:47,157,M4197.png,0
112_CF_monocular_catch_test,112,1206,Right,4,Catch,monocular,congruent,aligned,Left,5,0,2.96539228757047,F1,F1059.png,F1002.png,F1059.png,F1002.png,F1015.png,0.3,0.3,0.5,2.97534693227271,2019-02-01-10:32:26,165,F1015.png,0
112_CF_monocular_catch_test,112,1206,Right,5,Catch,monocular,congruent,aligned,Right,5,1,4.40584941586258,F3,F3047.png,F3112.png,F3079.png,F3062.png,F3047.png,0.3,0.3,0.5,4.40878473047906,2019-02-01-10:33:28,185,F3062.png,0
112_CF_monocular_catch_test,112,1206,Right,6,Catch,monocular,incongruent,misaligned,Left,4,1,3.70983427909641,F4,F4064.png,F4020.png,F4064.png,F4040.png,F4018.png,0.3,0.3,0.5,3.71713167857661,2019-02-01-10:35:02,207,F4040.png,0
112_CF_monocular_catch_test,112,1206,Right,7,Catch,monocular,congruent,misaligned,Right,5,1,1.72514417393586,F2,F2032.png,F2067.png,F2032.png,F2067.png,F2016.png,0.3,0.3,0.5,1.73350463700353,2019-02-01-10:36:20,235,F2067.png,1
112_CF_monocular_catch_test,112,1206,Right,8,Catch,monocular,congruent,misaligned,Right,5,1,2.5856347844533,M4,M4136.png,M4134.png,M4136.png,M4134.png,M4197.png,0.3,0.3,0.5,2.59201385027791,2019-02-01-10:37:50,262,M4134.png,1
112_CF_monocular_catch_test,112,1206,Right,9,Catch,monocular,congruent,misaligned,Right,4,0,2.3299815067312,F1,F1059.png,F1002.png,F1059.png,F1002.png,F1015.png,0.3,0.3,0.5,2.33361823118139,2019-02-01-10:39:15,285,F1015.png,0
112_CF_monocular_catch_test,112,1206,Right,10,Catch,monocular,congruent,misaligned,Left,5,0,2.74077808590391,F3,F3047.png,F3112.png,F3079.png,F3062.png,F3047.png,0.3,0.3,0.5,2.75034189452526,2019-02-01-10:40:20,300,F3047.png,0
112_catch_test,112,1206,Right,1,Catch,monocular,congruent,aligned,Right,5,1,4.09145528854469,F1,F1046.png,F1059.png,F1046.png,F1059.png,F1015.png,0.3,0.3,0.5,4.10038817046689,2019-02-01-10:43:36,1,F1059.png,1
112_catch_test,112,1206,Right,2,Catch,monocular,congruent,aligned,Right,5,1,1.45523208967097,M1,M1125.png,M1186.png,M1122.png,M1119.png,M1125.png,0.3,0.3,0.5,1.45846918159168,2019-02-01-10:43:40,2,M1119.png,0
112_catch_test,112,1206,Right,3,Catch,monocular,congruent,aligned,Left,4,1,1.56963203355826,M3,M3153.png,M3013.png,M3183.png,M3187.png,M3153.png,0.3,0.3,0.5,1.57516667037316,2019-02-01-10:43:43,3,M3187.png,0
112_catch_test,112,1206,Right,4,Catch,monocular,congruent,aligned,Right,5,1,1.61501975067449,F5,F5068.png,F5078.png,F5068.png,F5078.png,F5033.png,0.3,0.3,0.5,1.62518711390385,2019-02-01-10:43:47,4,F5078.png,1
112_catch_test,112,1206,Right,5,Catch,monocular,congruent,aligned,Left,4,1,1.03978601867811,M2,M2198.png,M2142.png,M2198.png,M2142.png,M2201.png,0.3,0.3,0.5,1.05016414700867,2019-02-01-10:43:50,5,M2142.png,1
112_catch_test,112,1206,Right,6,Catch,monocular,congruent,misaligned,Right,5,1,1.56957215710918,F1,F1046.png,F1059.png,F1046.png,F1059.png,F1015.png,0.3,0.3,0.5,1.57516667037362,2019-02-01-10:43:54,6,F1059.png,1
112_catch_test,112,1206,Right,7,Catch,monocular,congruent,misaligned,Left,4,1,2.39497174686949,M1,M1125.png,M1186.png,M1122.png,M1119.png,M1125.png,0.3,0.3,0.5,2.40021350231018,2019-02-01-10:43:58,7,M1119.png,0
112_catch_test,112,1206,Right,8,Catch,monocular,congruent,misaligned,Left,5,0,0.745198336461272,M3,M3153.png,M3013.png,M3183.png,M3187.png,M3153.png,0.3,0.3,0.5,0.749962791063808,2019-02-01-10:44:01,8,M3153.png,0
112_catch_test,112,1206,Right,9,Catch,monocular,congruent,misaligned,Right,5,1,0.644707520652901,F5,F5068.png,F5078.png,F5068.png,F5078.png,F5033.png,0.3,0.3,0.5,0.650052605737528,2019-02-01-10:44:04,9,F5078.png,1
112_catch_test,112,1206,Right,10,Catch,monocular,congruent,misaligned,Right,5,1,1.14026622780102,M2,M2198.png,M2142.png,M2198.png,M2142.png,M2201.png,0.3,0.3,0.5,1.15015200064317,2019-02-01-10:44:07,10,M2142.png,1
112_catch_test,112,1206,Right,11,Catch,monocular,incongruent,aligned,Left,4,1,2.74470906033321,F4,F4020.png,F4064.png,F4020.png,F4040.png,F4018.png,0.3,0.3,0.5,2.750316575341,2019-02-01-10:44:12,11,F4040.png,0
112_catch_test,112,1206,Right,12,Catch,monocular,congruent,aligned,Left,4,1,4.5601438403387,F2,F2032.png,F2067.png,F2032.png,F2067.png,F2017.png,0.3,0.3,0.5,4.56715793867625,2019-02-01-10:44:19,12,F2067.png,1
112_catch_test,112,1206,Right,13,Catch,monocular,congruent,aligned,Left,4,1,1.48951187007833,M4,M4188.png,M4134.png,M4188.png,M4134.png,M4197.png,0.3,0.3,0.5,1.49174440625666,2019-02-01-10:44:22,13,M4134.png,1
112_catch_test,112,1206,Right,14,Catch,monocular,congruent,aligned,Left,4,1,1.41488562742825,F1,F1046.png,F1059.png,F1046.png,F1059.png,F1015.png,0.3,0.3,0.5,1.42520182640283,2019-02-01-10:44:26,14,F1059.png,1
112_catch_test,112,1206,Right,15,Catch,monocular,congruent,aligned,Right,5,1,3.3945029998099,F3,F3079.png,F3062.png,F3112.png,F3047.png,F3079.png,0.3,0.3,0.5,3.40045642961877,2019-02-01-10:44:32,15,F3047.png,0
112_catch_test,112,1206,Right,16,Catch,monocular,incongruent,misaligned,Left,5,0,1.73957884616357,F4,F4020.png,F4064.png,F4020.png,F4040.png,F4018.png,0.3,0.3,0.5,1.75012736576127,2019-02-01-10:44:35,16,F4018.png,0
112_catch_test,112,1206,Right,17,Catch,monocular,congruent,misaligned,Right,5,1,1.16507594899895,F2,F2032.png,F2067.png,F2032.png,F2067.png,F2017.png,0.3,0.3,0.5,1.17525665612266,2019-02-01-10:44:39,17,F2067.png,1
112_catch_test,112,1206,Right,18,Catch,monocular,congruent,misaligned,Left,4,1,0.879834467279125,M4,M4188.png,M4134.png,M4188.png,M4134.png,M4197.png,0.3,0.3,0.5,0.883455794928068,2019-02-01-10:44:42,18,M4134.png,1
112_catch_test,112,1206,Right,19,Catch,monocular,congruent,misaligned,Right,5,1,0.724931013776768,F1,F1046.png,F1059.png,F1046.png,F1059.png,F1015.png,0.3,0.3,0.5,0.733423205032523,2019-02-01-10:44:44,19,F1059.png,1
112_catch_test,112,1206,Right,20,Catch,monocular,congruent,misaligned,Right,5,1,1.19012038587789,F3,F3079.png,F3062.png,F3112.png,F3047.png,F3079.png,0.3,0.3,0.5,1.20017210202241,2019-02-01-10:44:48,20,F3047.png,0
112_CF_CFS_catch_test,112,1207,Right,1,Catch,CFS,incongruent,aligned,Left,5,0,3.95075640804112,M1,M1122.png,M1186.png,M1122.png,M1125.png,M1119.png,0.3,0.3,0.5,3.95876374373643,2019-02-04-13:26:54,11,M1119.png,0
112_CF_CFS_catch_test,112,1207,Right,2,Catch,CFS,incongruent,aligned,Left,5,0,3.16004148472302,F5,F5068.png,F5033.png,F5068.png,F5078.png,F5076.png,0.3,0.3,0.5,3.16695736202155,2019-02-04-13:27:07,15,F5076.png,0
112_CF_CFS_catch_test,112,1207,Right,3,Catch,CFS,congruent,aligned,Right,4,0,2.66117354632615,M3,M3013.png,M3183.png,M3187.png,M3153.png,M3013.png,0.3,0.3,0.5,2.66689703098655,2019-02-04-13:33:51,137,M3013.png,0
112_CF_CFS_catch_test,112,1207,Right,4,Catch,CFS,incongruent,aligned,Left,5,0,4.35036156697834,F2,F2016.png,F2067.png,F2017.png,F2067.png,F2032.png,0.3,0.3,0.5,4.35887816739933,2019-02-04-13:36:05,176,F2032.png,0
112_CF_CFS_catch_test,112,1207,Right,5,Catch,CFS,incongruent,aligned,Right,5,1,3.20495570013281,M2,M2201.png,M2141.png,M2198.png,M2141.png,M2142.png,0.3,0.3,0.5,3.20868650338116,2019-02-04-13:36:57,194,M2141.png,1
112_CF_CFS_catch_test,112,1207,Right,6,Catch,CFS,incongruent,misaligned,Right,4,0,2.54569464141832,M1,M1122.png,M1186.png,M1122.png,M1125.png,M1119.png,0.3,0.3,0.5,2.5503314429161,2019-02-04-13:37:04,196,M1119.png,0
112_CF_CFS_catch_test,112,1207,Right,7,Catch,CFS,incongruent,misaligned,Left,4,1,2.57466242628834,F5,F5068.png,F5033.png,F5068.png,F5078.png,F5076.png,0.3,0.3,0.5,2.58378961882772,2019-02-04-13:37:58,208,F5078.png,0
112_CF_CFS_catch_test,112,1207,Right,8,Catch,CFS,congruent,misaligned,Right,4,0,2.53009534008834,M3,M3013.png,M3183.png,M3187.png,M3153.png,M3013.png,0.3,0.3,0.5,2.53355652916207,2019-02-04-13:38:14,213,M3013.png,0
112_CF_CFS_catch_test,112,1207,Right,9,Catch,CFS,incongruent,misaligned,Left,4,1,2.44957958322721,F2,F2016.png,F2067.png,F2017.png,F2067.png,F2032.png,0.3,0.3,0.5,2.45872568858658,2019-02-04-13:38:41,222,F2067.png,1
112_CF_CFS_catch_test,112,1207,Right,10,Catch,CFS,incongruent,misaligned,Right,5,1,3.93573636660676,M2,M2201.png,M2141.png,M2198.png,M2141.png,M2142.png,0.3,0.3,0.5,3.94216878600082,2019-02-04-13:39:48,243,M2141.png,1
112_CF_monocular_catch_test,112,1207,Right,1,Catch,monocular,incongruent,aligned,Right,4,0,11.3745618341975,F5,F5078.png,F5076.png,F5078.png,F5033.png,F5068.png,0.3,0.3,0.5,11.38461556885,2019-02-04-13:06:51,39,F5068.png,0
112_CF_monocular_catch_test,112,1207,Right,2,Catch,monocular,incongruent,aligned,Right,5,1,10.2715208813879,F2,F2017.png,F2016.png,F2067.png,F2016.png,F2032.png,0.3,0.3,0.5,10.2760666858595,2019-02-04-13:08:52,72,F2016.png,1
112_CF_monocular_catch_test,112,1207,Right,3,Catch,monocular,congruent,aligned,Left,4,1,2.68116378890045,M2,M2201.png,M2198.png,M2201.png,M2198.png,M2141.png,0.3,0.3,0.5,2.69195211953365,2019-02-04-13:10:21,94,M2198.png,1
112_CF_monocular_catch_test,112,1207,Right,4,Catch,monocular,congruent,aligned,Right,5,1,5.31118060557128,M4,M4188.png,M4136.png,M4188.png,M4136.png,M4134.png,0.3,0.3,0.5,5.31722605335153,2019-02-04-13:12:37,129,M4136.png,1
112_CF_monocular_catch_test,112,1207,Right,5,Catch,monocular,congruent,aligned,Left,4,1,4.0908811901345,F1,F1046.png,F1015.png,F1046.png,F1015.png,F1002.png,0.3,0.3,0.5,4.10051148883394,2019-02-04-13:16:04,189,F1015.png,1
112_CF_monocular_catch_test,112,1207,Right,6,Catch,monocular,incongruent,misaligned,Left,4,1,2.57527247968051,F5,F5078.png,F5076.png,F5078.png,F5033.png,F5068.png,0.3,0.3,0.5,2.58371278079221,2019-02-04-13:17:21,205,F5033.png,0
112_CF_monocular_catch_test,112,1207,Right,7,Catch,monocular,incongruent,misaligned,Right,5,1,4.23080136654698,F2,F2017.png,F2016.png,F2067.png,F2016.png,F2032.png,0.3,0.3,0.5,4.23369321807445,2019-02-04-13:19:04,235,F2016.png,1
112_CF_monocular_catch_test,112,1207,Right,8,Catch,monocular,congruent,misaligned,Left,4,1,8.56103767242234,M2,M2201.png,M2198.png,M2201.png,M2198.png,M2141.png,0.3,0.3,0.5,8.56761311050241,2019-02-04-13:22:13,283,M2198.png,1
112_CF_monocular_catch_test,112,1207,Right,9,Catch,monocular,congruent,misaligned,Left,4,1,6.39603824552341,M4,M4188.png,M4136.png,M4188.png,M4136.png,M4134.png,0.3,0.3,0.5,6.40075952219263,2019-02-04-13:24:23,316,M4136.png,1
112_CF_monocular_catch_test,112,1207,Right,10,Catch,monocular,congruent,misaligned,Right,4,0,3.07522094187516,F1,F1046.png,F1015.png,F1046.png,F1015.png,F1002.png,0.3,0.3,0.5,3.08367727329937,2019-02-04-13:24:51,325,F1002.png,0
112_catch_test,112,1207,Right,1,Catch,monocular,incongruent,aligned,Right,5,1,2.64676129394275,M1,M1122.png,M1125.png,M1122.png,M1186.png,M1119.png,0.3,0.3,0.5,2.65029780056193,2019-02-04-13:47:52,1,M1186.png,0
112_catch_test,112,1207,Right,2,Catch,monocular,incongruent,aligned,Left,4,1,1.3803516959515,F5,F5068.png,F5078.png,F5068.png,F5076.png,F5033.png,0.3,0.3,0.5,1.39177163542536,2019-02-04-13:47:56,2,F5076.png,0
112_catch_test,112,1207,Right,3,Catch,monocular,congruent,aligned,Right,5,1,2.84086810289818,M3,M3153.png,M3013.png,M3183.png,M3187.png,M3153.png,0.3,0.3,0.5,2.85035093502484,2019-02-04-13:48:01,3,M3187.png,0
112_catch_test,112,1207,Right,4,Catch,monocular,incongruent,aligned,Right,5,1,1.68992624957446,F2,F2067.png,F2016.png,F2017.png,F2016.png,F2032.png,0.3,0.3,0.5,1.70027149599946,2019-02-04-13:48:05,4,F2016.png,1
112_catch_test,112,1207,Right,5,Catch,monocular,incongruent,aligned,Left,4,1,1.21588191720275,M2,M2198.png,M2201.png,M2141.png,M2201.png,M2142.png,0.3,0.3,0.5,1.22519846444538,2019-02-04-13:48:08,5,M2201.png,1
112_catch_test,112,1207,Right,6,Catch,monocular,incongruent,misaligned,Left,4,1,2.20006603494357,M1,M1122.png,M1125.png,M1122.png,M1186.png,M1119.png,0.3,0.3,0.5,2.20859172784003,2019-02-04-13:48:12,6,M1186.png,0
112_catch_test,112,1207,Right,7,Catch,monocular,incongruent,misaligned,Left,5,0,1.56539221506182,F5,F5068.png,F5078.png,F5068.png,F5076.png,F5033.png,0.3,0.3,0.5,1.5752324481341,2019-02-04-13:48:16,7,F5033.png,0
112_catch_test,112,1207,Right,8,Catch,monocular,congruent,misaligned,Left,5,0,2.54547634973869,M3,M3153.png,M3013.png,M3183.png,M3187.png,M3153.png,0.3,0.3,0.5,2.55035603591341,2019-02-04-13:48:21,8,M3153.png,0
112_catch_test,112,1207,Right,9,Catch,monocular,incongruent,misaligned,Right,5,1,1.90046652148112,F2,F2067.png,F2016.png,F2017.png,F2016.png,F2032.png,0.3,0.3,0.5,1.90862508746204,2019-02-04-13:48:25,9,F2016.png,1
112_catch_test,112,1207,Right,10,Catch,monocular,incongruent,misaligned,Left,4,1,1.89018662570015,M2,M2198.png,M2201.png,M2141.png,M2201.png,M2142.png,0.3,0.3,0.5,1.90027320674926,2019-02-04-13:48:29,10,M2201.png,1
112_catch_test,112,1207,Right,11,Catch,monocular,incongruent,aligned,Left,4,1,3.21027886933143,F5,F5076.png,F5033.png,F5076.png,F5068.png,F5078.png,0.3,0.3,0.5,3.21704762214358,2019-02-04-13:48:34,11,F5068.png,0
112_catch_test,112,1207,Right,12,Catch,monocular,incongruent,aligned,Right,5,1,1.82045030357267,F2,F2016.png,F2032.png,F2067.png,F2032.png,F2017.png,0.3,0.3,0.5,1.82514494328007,2019-02-04-13:48:38,12,F2032.png,1
112_catch_test,112,1207,Right,13,Catch,monocular,congruent,aligned,Left,4,1,0.930594879041109,M2,M2142.png,M2141.png,M2142.png,M2141.png,M2198.png,0.3,0.3,0.5,0.933511707516118,2019-02-04-13:48:41,13,M2141.png,1
112_catch_test,112,1207,Right,14,Catch,monocular,congruent,aligned,Right,5,1,1.49005250291248,M4,M4197.png,M4134.png,M4197.png,M4134.png,M4188.png,0.3,0.3,0.5,1.50020272385609,2019-02-04-13:48:45,14,M4134.png,1
112_catch_test,112,1207,Right,15,Catch,monocular,congruent,aligned,Left,4,1,1.69506705283993,F1,F1002.png,F1059.png,F1002.png,F1059.png,F1015.png,0.3,0.3,0.5,1.70021025115511,2019-02-04-13:48:48,15,F1059.png,1
112_catch_test,112,1207,Right,16,Catch,monocular,incongruent,misaligned,Right,5,1,2.50992115153986,F5,F5076.png,F5033.png,F5076.png,F5068.png,F5078.png,0.3,0.3,0.5,2.51711362572587,2019-02-04-13:48:53,16,F5068.png,0
112_catch_test,112,1207,Right,17,Catch,monocular,incongruent,misaligned,Right,5,1,1.74514138492032,F2,F2016.png,F2032.png,F2067.png,F2032.png,F2017.png,0.3,0.3,0.5,1.75024601545056,2019-02-04-13:48:57,17,F2032.png,1
112_catch_test,112,1207,Right,18,Catch,monocular,congruent,misaligned,Left,4,1,1.64085236399978,M2,M2142.png,M2141.png,M2142.png,M2141.png,M2198.png,0.3,0.3,0.5,1.65020576222059,2019-02-04-13:49:01,18,M2141.png,1
112_catch_test,112,1207,Right,19,Catch,monocular,congruent,misaligned,Right,5,1,2.26992245776637,M4,M4197.png,M4134.png,M4197.png,M4134.png,M4188.png,0.3,0.3,0.5,2.27520148961867,2019-02-04-13:49:05,19,M4134.png,1
112_catch_test,112,1207,Right,20,Catch,monocular,congruent,misaligned,Right,5,1,1.56470278287679,F1,F1002.png,F1059.png,F1002.png,F1059.png,F1015.png,0.3,0.3,0.5,1.57532790797541,2019-02-04-13:49:09,20,F1059.png,1
112_CF_CFS_catch_test,112,1208,Right,1,Catch,CFS,incongruent,aligned,Right,5,1,3.44112813687343,F4,F4040.png,F4018.png,F4040.png,F4064.png,F4020.png,0.3,0.3,0.5,3.45038534640116,2019-02-11-17:46:14,74,F4064.png,0
112_CF_CFS_catch_test,112,1208,Right,2,Catch,CFS,incongruent,aligned,Right,4,0,2.5846751029444,F1,F1046.png,F1059.png,F1046.png,F1002.png,F1015.png,0.3,0.3,0.5,2.59208915059571,2019-02-11-17:46:54,84,F1015.png,0
112_CF_CFS_catch_test,112,1208,Right,3,Catch,CFS,incongruent,aligned,Left,5,0,3.23557333214694,M2,M2201.png,M2142.png,M2201.png,M2141.png,M2198.png,0.3,0.3,0.5,3.2420746703051,2019-02-11-17:48:36,120,M2198.png,0
112_CF_CFS_catch_test,112,1208,Right,4,Catch,CFS,incongruent,aligned,Left,4,1,2.08009559670109,M1,M1119.png,M1186.png,M1125.png,M1186.png,M1122.png,0.3,0.3,0.5,2.08354823202581,2019-02-11-17:50:05,148,M1186.png,1
112_CF_CFS_catch_test,112,1208,Right,5,Catch,CFS,congruent,aligned,Right,5,1,2.73499937557654,M5,M5146.png,M5154.png,M5152.png,M5178.png,M5146.png,0.3,0.3,0.5,2.74194638852168,2019-02-11-17:50:12,150,M5178.png,0
112_CF_CFS_catch_test,112,1208,Right,6,Catch,CFS,incongruent,misaligned,Left,5,0,2.11556120051773,F4,F4040.png,F4018.png,F4040.png,F4064.png,F4020.png,0.3,0.3,0.5,2.12515816496352,2019-02-11-17:52:09,191,F4020.png,0
112_CF_CFS_catch_test,112,1208,Right,7,Catch,CFS,incongruent,misaligned,Left,5,0,2.06029058796776,F1,F1046.png,F1059.png,F1046.png,F1002.png,F1015.png,0.3,0.3,0.5,2.06688073849682,2019-02-11-17:52:48,205,F1015.png,0
112_CF_CFS_catch_test,112,1208,Right,8,Catch,CFS,incongruent,misaligned,Left,4,1,1.65530820013737,M2,M2201.png,M2142.png,M2201.png,M2141.png,M2198.png,0.3,0.3,0.5,1.65857040433457,2019-02-11-17:54:41,243,M2141.png,0
112_CF_CFS_catch_test,112,1208,Right,9,Catch,CFS,incongruent,misaligned,Right,4,0,2.02983273998825,M1,M1119.png,M1186.png,M1125.png,M1186.png,M1122.png,0.3,0.3,0.5,2.03359604748357,2019-02-11-17:56:32,281,M1122.png,0
112_CF_CFS_catch_test,112,1208,Right,10,Catch,CFS,congruent,misaligned,Right,4,0,1.39034760726008,M5,M5146.png,M5154.png,M5152.png,M5178.png,M5146.png,0.3,0.3,0.5,1.40015362533586,2019-02-11-17:56:48,287,M5146.png,0
112_CF_monocular_catch_test,112,1208,Right,1,Catch,monocular,congruent,aligned,Right,4,0,16.8367746206841,F1,F1002.png,F1015.png,F1002.png,F1015.png,F1059.png,0.3,0.3,0.5,16.8436833128328,2019-02-11-17:24:55,8,F1059.png,0
112_CF_monocular_catch_test,112,1208,Right,2,Catch,monocular,incongruent,aligned,Right,5,1,6.98084370760535,M4,M4197.png,M4134.png,M4188.png,M4134.png,M4136.png,0.3,0.3,0.5,6.98400038320824,2019-02-11-17:26:21,37,M4134.png,1
112_CF_monocular_catch_test,112,1208,Right,3,Catch,monocular,congruent,aligned,Left,5,0,4.57050838352961,M5,M5178.png,M5154.png,M5178.png,M5154.png,M5146.png,0.3,0.3,0.5,4.57555509555414,2019-02-11-17:27:24,54,M5146.png,0
112_CF_monocular_catch_test,112,1208,Right,4,Catch,monocular,incongruent,aligned,Left,4,1,5.1200262086877,M2,M2201.png,M2198.png,M2141.png,M2198.png,M2142.png,0.3,0.3,0.5,5.12563986320856,2019-02-11-17:28:39,81,M2198.png,1
112_CF_monocular_catch_test,112,1208,Right,5,Catch,monocular,congruent,aligned,Left,4,1,4.01045576086472,F3,F3047.png,F3112.png,F3062.png,F3079.png,F3047.png,0.3,0.3,0.5,4.01725530717385,2019-02-11-17:29:33,93,F3079.png,0
112_CF_monocular_catch_test,112,1208,Right,6,Catch,monocular,congruent,misaligned,Left,4,1,4.11549888031459,F1,F1002.png,F1015.png,F1002.png,F1015.png,F1059.png,0.3,0.3,0.5,4.12552729586923,2019-02-11-17:30:32,114,F1015.png,1
112_CF_monocular_catch_test,112,1208,Right,7,Catch,monocular,incongruent,misaligned,Left,4,1,2.89012807803783,M4,M4197.png,M4134.png,M4188.png,M4134.png,M4136.png,0.3,0.3,0.5,2.90032038342724,2019-02-11-17:30:40,116,M4134.png,1
112_CF_monocular_catch_test,112,1208,Right,8,Catch,monocular,congruent,misaligned,Right,5,1,3.93537574054108,M5,M5178.png,M5154.png,M5178.png,M5154.png,M5146.png,0.3,0.3,0.5,3.94210822545665,2019-02-11-17:32:18,145,M5154.png,1
112_CF_monocular_catch_test,112,1208,Right,9,Catch,monocular,incongruent,misaligned,Right,5,1,3.34465005756692,M2,M2201.png,M2198.png,M2141.png,M2198.png,M2142.png,0.3,0.3,0.5,3.35048542526692,2019-02-11-17:34:04,179,M2198.png,1
112_CF_monocular_catch_test,112,1208,Right,10,Catch,monocular,congruent,misaligned,Right,5,1,3.58064662922379,F3,F3047.png,F3112.png,F3062.png,F3079.png,F3047.png,0.3,0.3,0.5,3.58362607114304,2019-02-11-17:34:35,189,F3079.png,0
112_catch_test,112,1208,Right,1,Catch,monocular,incongruent,aligned,Left,5,0,3.250857513357,F4,F4020.png,F4018.png,F4020.png,F4040.png,F4064.png,0.3,0.3,0.5,3.25872319896553,2019-02-11-18:00:51,1,F4064.png,0
112_catch_test,112,1208,Right,2,Catch,monocular,incongruent,aligned,Right,5,1,1.01505904653004,F1,F1046.png,F1002.png,F1046.png,F1015.png,F1059.png,0.3,0.3,0.5,1.02513399448071,2019-02-11-18:00:54,2,F1015.png,0
112_catch_test,112,1208,Right,3,Catch,monocular,incongruent,aligned,Left,4,1,0.700250967001011,M2,M2141.png,M2142.png,M2141.png,M2198.png,M2201.png,0.3,0.3,0.5,0.708546735118944,2019-02-11-18:00:57,3,M2198.png,0
112_catch_test,112,1208,Right,4,Catch,monocular,incongruent,aligned,Right,5,1,0.614936214691625,M1,M1122.png,M1186.png,M1125.png,M1186.png,M1119.png,0.3,0.3,0.5,0.62507172318692,2019-02-11-18:01:00,4,M1186.png,1
112_catch_test,112,1208,Right,5,Catch,monocular,congruent,aligned,Left,4,1,1.465090609865,M5,M5152.png,M5146.png,M5178.png,M5154.png,M5152.png,0.3,0.3,0.5,1.47518266531461,2019-02-11-18:01:03,5,M5154.png,0
112_catch_test,112,1208,Right,6,Catch,monocular,incongruent,misaligned,Left,4,1,0.825168551627939,F4,F4020.png,F4018.png,F4020.png,F4040.png,F4064.png,0.3,0.3,0.5,0.833491153264731,2019-02-11-18:01:06,6,F4040.png,0
112_catch_test,112,1208,Right,7,Catch,monocular,incongruent,misaligned,Left,4,1,1.14994174896856,F1,F1046.png,F1002.png,F1046.png,F1015.png,F1059.png,0.3,0.3,0.5,1.15844143846698,2019-02-11-18:01:10,7,F1015.png,0
112_catch_test,112,1208,Right,8,Catch,monocular,incongruent,misaligned,Right,5,1,0.759827145836425,M2,M2141.png,M2142.png,M2141.png,M2198.png,M2201.png,0.3,0.3,0.5,0.766906228669541,2019-02-11-18:01:12,8,M2198.png,0
112_catch_test,112,1208,Right,9,Catch,monocular,incongruent,misaligned,Right,5,1,0.570188473309827,M1,M1122.png,M1186.png,M1125.png,M1186.png,M1119.png,0.3,0.3,0.5,0.575083612898197,2019-02-11-18:01:15,9,M1186.png,1
112_catch_test,112,1208,Right,10,Catch,monocular,congruent,misaligned,Right,4,0,1.62510114808447,M5,M5152.png,M5146.png,M5178.png,M5154.png,M5152.png,0.3,0.3,0.5,1.63360939133236,2019-02-11-18:01:19,10,M5152.png,0
112_catch_test,112,1208,Right,11,Catch,monocular,congruent,aligned,Left,4,1,0.689727460442555,F1,F1015.png,F1059.png,F1015.png,F1059.png,F1046.png,0.3,0.3,0.5,0.700097341665241,2019-02-11-18:01:22,11,F1059.png,1
112_catch_test,112,1208,Right,12,Catch,monocular,incongruent,aligned,Left,4,1,0.664936300229783,M4,M4197.png,M4136.png,M4188.png,M4136.png,M4134.png,0.3,0.3,0.5,0.675167610715107,2019-02-11-18:01:24,12,M4136.png,1
112_catch_test,112,1208,Right,13,Catch,monocular,congruent,aligned,Left,4,1,0.510085725674799,M5,M5178.png,M5154.png,M5178.png,M5154.png,M5152.png,0.3,0.3,0.5,0.516861663635609,2019-02-11-18:01:27,13,M5154.png,1
112_catch_test,112,1208,Right,14,Catch,monocular,incongruent,aligned,Right,4,0,0.485182340271422,M2,M2141.png,M2142.png,M2201.png,M2142.png,M2198.png,0.3,0.3,0.5,0.491852896042474,2019-02-11-18:01:30,14,M2198.png,0
112_catch_test,112,1208,Right,15,Catch,monocular,congruent,aligned,Right,5,1,0.819676360345511,F3,F3047.png,F3062.png,F3112.png,F3079.png,F3047.png,0.3,0.3,0.5,0.82511996633275,2019-02-11-18:01:33,15,F3079.png,0
112_catch_test,112,1208,Right,16,Catch,monocular,congruent,misaligned,Left,4,1,0.750408099373999,F1,F1015.png,F1059.png,F1015.png,F1059.png,F1046.png,0.3,0.3,0.5,0.758376087822398,2019-02-11-18:01:36,16,F1059.png,1
112_catch_test,112,1208,Right,17,Catch,monocular,incongruent,misaligned,Left,4,1,0.970180603861081,M4,M4197.png,M4136.png,M4188.png,M4136.png,M4134.png,0.3,0.3,0.5,0.975113424751726,2019-02-11-18:01:39,17,M4136.png,1
112_catch_test,112,1208,Right,18,Catch,monocular,congruent,misaligned,Right,5,1,0.919970096092584,M5,M5178.png,M5154.png,M5178.png,M5154.png,M5152.png,0.3,0.3,0.5,0.925147262568316,2019-02-11-18:01:42,18,M5154.png,1
112_catch_test,112,1208,Right,19,Catch,monocular,incongruent,misaligned,Right,5,1,0.985178063397143,M2,M2141.png,M2142.png,M2201.png,M2142.png,M2198.png,0.3,0.3,0.5,0.991898915212914,2019-02-11-18:01:45,19,M2142.png,1
112_catch_test,112,1208,Right,20,Catch,monocular,congruent,misaligned,Right,4,0,1.52529497604064,F3,F3047.png,F3062.png,F3112.png,F3079.png,F3047.png,0.3,0.3,0.5,1.53350691741707,2019-02-11-18:01:48,20,F3047.png,0
112_CF_CFS_catch_test,112,1209,Left,1,Catch,CFS,incongruent,aligned,Left,4,1,10.8377596704411,F4,F4064.png,F4020.png,F4040.png,F4020.png,F4018.png,0.3,0.3,0.5,10.8428655744099,2019-03-06-14:08:43,11,F4020.png,1
112_CF_CFS_catch_test,112,1209,Left,2,Catch,CFS,congruent,aligned,Right,5,1,4.25539202687929,M5,M5178.png,M5152.png,M5178.png,M5152.png,M5146.png,0.3,0.3,0.5,4.25872627831501,2019-03-06-14:09:12,26,M5152.png,1
112_CF_CFS_catch_test,112,1209,Left,3,Catch,CFS,incongruent,aligned,Right,4,0,3.89074433014741,F2,F2016.png,F2032.png,F2016.png,F2067.png,F2017.png,0.3,0.3,0.5,3.90041075103636,2019-03-06-14:13:47,113,F2017.png,0
112_CF_CFS_catch_test,112,1209,Left,4,Catch,CFS,congruent,aligned,Left,5,0,2.88039839942246,M1,M1186.png,M1122.png,M1125.png,M1119.png,M1186.png,0.3,0.3,0.5,2.88365908861522,2019-03-06-14:13:52,114,M1186.png,0
112_CF_CFS_catch_test,112,1209,Left,5,Catch,CFS,congruent,aligned,Right,5,1,4.36047791507497,M3,M3153.png,M3187.png,M3183.png,M3013.png,M3153.png,0.3,0.3,0.5,4.36718029079327,2019-03-06-14:14:02,116,M3013.png,0
112_CF_CFS_catch_test,112,1209,Left,6,Catch,CFS,incongruent,misaligned,Right,5,1,3.76009470711108,F4,F4064.png,F4020.png,F4040.png,F4020.png,F4018.png,0.3,0.3,0.5,3.76714539149657,2019-03-06-14:15:17,138,F4020.png,1
112_CF_CFS_catch_test,112,1209,Left,7,Catch,CFS,congruent,misaligned,Left,5,0,4.3504700285182,M5,M5178.png,M5152.png,M5178.png,M5152.png,M5146.png,0.3,0.3,0.5,4.3587870099343,2019-03-06-14:17:20,178,M5146.png,0
112_CF_CFS_catch_test,112,1209,Left,8,Catch,CFS,incongruent,misaligned,Left,5,0,3.87488636344187,F2,F2016.png,F2032.png,F2016.png,F2067.png,F2017.png,0.3,0.3,0.5,3.88394865981081,2019-03-06-14:20:20,240,F2017.png,0
112_CF_CFS_catch_test,112,1209,Left,9,Catch,CFS,congruent,misaligned,Right,4,0,2.17057886642306,M1,M1186.png,M1122.png,M1125.png,M1119.png,M1186.png,0.3,0.3,0.5,2.17530885990004,2019-03-06-14:20:29,243,M1186.png,0
112_CF_CFS_catch_test,112,1209,Left,10,Catch,CFS,congruent,misaligned,Left,5,0,3.2857681010164,M3,M3153.png,M3187.png,M3183.png,M3013.png,M3153.png,0.3,0.3,0.5,3.29210813991881,2019-03-06-14:24:15,319,M3153.png,0
112_CF_monocular_catch_test,112,1209,Left,1,Catch,monocular,incongruent,aligned,Left,5,0,4.05556515476314,F1,F1015.png,F1002.png,F1046.png,F1002.png,F1059.png,0.3,0.3,0.5,4.05874954451292,2019-03-06-14:30:17,91,F1059.png,0
112_CF_monocular_catch_test,112,1209,Left,2,Catch,monocular,incongruent,aligned,Right,5,1,3.26973290062756,M3,M3153.png,M3013.png,M3153.png,M3187.png,M3183.png,0.3,0.3,0.5,3.27546733408712,2019-03-06-14:32:32,138,M3187.png,0
112_CF_monocular_catch_test,112,1209,Left,3,Catch,monocular,incongruent,aligned,Left,5,0,2.77576072768443,M4,M4136.png,M4197.png,M4136.png,M4188.png,M4134.png,0.3,0.3,0.5,2.78372988695855,2019-03-06-14:33:02,149,M4134.png,0
112_CF_monocular_catch_test,112,1209,Left,4,Catch,monocular,congruent,aligned,Right,5,1,2.29468795067578,F5,F5078.png,F5068.png,F5078.png,F5068.png,F5076.png,0.3,0.3,0.5,2.30026620355147,2019-03-06-14:34:13,171,F5068.png,1
112_CF_monocular_catch_test,112,1209,Left,5,Catch,monocular,congruent,aligned,Right,5,1,1.83547205575678,F4,F4040.png,F4020.png,F4040.png,F4020.png,F4064.png,0.3,0.3,0.5,1.84193629509764,2019-03-06-14:34:30,177,F4020.png,1
112_CF_monocular_catch_test,112,1209,Left,6,Catch,monocular,incongruent,misaligned,Left,4,1,5.00521402335858,F1,F1015.png,F1002.png,F1046.png,F1002.png,F1059.png,0.3,0.3,0.5,5.00887058006401,2019-03-06-14:35:25,197,F1002.png,1
112_CF_monocular_catch_test,112,1209,Left,7,Catch,monocular,incongruent,misaligned,Left,4,1,3.10009548654034,M3,M3153.png,M3013.png,M3153.png,M3187.png,M3183.png,0.3,0.3,0.5,3.10867660773147,2019-03-06-14:37:41,244,M3187.png,0
112_CF_monocular_catch_test,112,1209,Left,8,Catch,monocular,incongruent,misaligned,Right,4,0,2.26051127469691,M4,M4136.png,M4197.png,M4136.png,M4188.png,M4134.png,0.3,0.3,0.5,2.26690263609453,2019-03-06-14:39:32,282,M4134.png,0
112_CF_monocular_catch_test,112,1209,Left,9,Catch,monocular,congruent,misaligned,Left,4,1,1.89094657242458,F5,F5078.png,F5068.png,F5078.png,F5068.png,F5076.png,0.3,0.3,0.5,1.90018667445383,2019-03-06-14:40:03,289,F5068.png,1
112_CF_monocular_catch_test,112,1209,Left,10,Catch,monocular,congruent,misaligned,Right,5,1,2.17499396960693,F4,F4040.png,F4020.png,F4040.png,F4020.png,F4064.png,0.3,0.3,0.5,2.18352650550287,2019-03-06-14:41:41,327,F4020.png,1
112_catch_test,112,1209,Left,1,Catch,monocular,incongruent,aligned,Left,5,0,4.33613257626939,F4,F4040.png,F4018.png,F4020.png,F4018.png,F4064.png,0.3,0.3,0.5,4.3420835906586,2019-03-06-14:43:31,1,F4064.png,0
112_catch_test,112,1209,Left,2,Catch,monocular,congruent,aligned,Right,5,1,1.42004930381017,M5,M5178.png,M5154.png,M5178.png,M5154.png,M5152.png,0.3,0.3,0.5,1.42529001486628,2019-03-06-14:43:35,2,M5154.png,1
112_catch_test,112,1209,Left,3,Catch,monocular,incongruent,aligned,Left,4,1,0.820669279552021,F2,F2032.png,F2067.png,F2032.png,F2017.png,F2016.png,0.3,0.3,0.5,0.825060774388021,2019-03-06-14:43:38,3,F2017.png,0
112_catch_test,112,1209,Left,4,Catch,monocular,congruent,aligned,Right,5,1,0.815427884196197,M1,M1125.png,M1122.png,M1119.png,M1186.png,M1125.png,0.3,0.3,0.5,0.825028612291135,2019-03-06-14:43:41,4,M1186.png,0
112_catch_test,112,1209,Left,5,Catch,monocular,congruent,aligned,Right,5,1,1.51566927099793,M3,M3153.png,M3183.png,M3013.png,M3187.png,M3153.png,0.3,0.3,0.5,1.52526749952767,2019-03-06-14:43:44,5,M3187.png,0
112_catch_test,112,1209,Left,6,Catch,monocular,incongruent,misaligned,Left,4,1,0.880704623643396,F4,F4040.png,F4018.png,F4020.png,F4018.png,F4064.png,0.3,0.3,0.5,0.891835869404531,2019-03-06-14:43:47,6,F4018.png,1
112_catch_test,112,1209,Left,7,Catch,monocular,congruent,misaligned,Left,4,1,1.49517038213025,M5,M5178.png,M5154.png,M5178.png,M5154.png,M5152.png,0.3,0.3,0.5,1.50018493205744,2019-03-06-14:43:51,7,M5154.png,1
112_catch_test,112,1209,Left,8,Catch,monocular,incongruent,misaligned,Right,5,1,0.870816449145423,F2,F2032.png,F2067.png,F2032.png,F2017.png,F2016.png,0.3,0.3,0.5,0.875096733414011,2019-03-06-14:43:54,8,F2017.png,0
112_catch_test,112,1209,Left,9,Catch,monocular,congruent,misaligned,Left,4,1,0.925640205358377,M1,M1125.png,M1122.png,M1119.png,M1186.png,M1125.png,0.3,0.3,0.5,0.93339332362757,2019-03-06-14:43:57,9,M1186.png,0
112_catch_test,112,1209,Left,10,Catch,monocular,congruent,misaligned,Left,4,1,1.35550476529352,M3,M3153.png,M3183.png,M3013.png,M3187.png,M3153.png,0.3,0.3,0.5,1.35847531131367,2019-03-06-14:44:01,10,M3187.png,0
112_catch_test,112,1209,Left,11,Catch,monocular,incongruent,aligned,Right,5,1,0.894897688605852,F1,F1059.png,F1015.png,F1046.png,F1015.png,F1002.png,0.3,0.3,0.5,0.900188353557496,2019-03-06-14:44:04,11,F1015.png,1
112_catch_test,112,1209,Left,12,Catch,monocular,incongruent,aligned,Left,4,1,1.15502096523915,M3,M3187.png,M3153.png,M3187.png,M3183.png,M3013.png,0.3,0.3,0.5,1.15849002376217,2019-03-06-14:44:07,12,M3183.png,0
112_catch_test,112,1209,Left,13,Catch,monocular,incongruent,aligned,Right,5,1,0.935441775484833,M4,M4136.png,M4197.png,M4136.png,M4134.png,M4188.png,0.3,0.3,0.5,0.941834505482348,2019-03-06-14:44:10,13,M4134.png,0
112_catch_test,112,1209,Left,14,Catch,monocular,congruent,aligned,Right,5,1,0.899974167677556,F5,F5033.png,F5078.png,F5033.png,F5078.png,F5076.png,0.3,0.3,0.5,0.90851867882202,2019-03-06-14:44:13,14,F5078.png,1
112_catch_test,112,1209,Left,15,Catch,monocular,congruent,aligned,Right,5,1,0.849695572066139,F4,F4040.png,F4018.png,F4040.png,F4018.png,F4064.png,0.3,0.3,0.5,0.85854645237805,2019-03-06-14:44:16,15,F4018.png,1
112_catch_test,112,1209,Left,16,Catch,monocular,incongruent,misaligned,Right,5,1,0.670392960173558,F1,F1059.png,F1015.png,F1046.png,F1015.png,F1002.png,0.3,0.3,0.5,0.675075862266112,2019-03-06-14:44:19,16,F1015.png,1
112_catch_test,112,1209,Left,17,Catch,monocular,incongruent,misaligned,Left,4,1,0.770623688068554,M3,M3187.png,M3153.png,M3187.png,M3183.png,M3013.png,0.3,0.3,0.5,0.775164702440634,2019-03-06-14:44:22,17,M3183.png,0
112_catch_test,112,1209,Left,18,Catch,monocular,incongruent,misaligned,Left,4,1,1.05539750127855,M4,M4136.png,M4197.png,M4136.png,M4134.png,M4188.png,0.3,0.3,0.5,1.0584953270868,2019-03-06-14:44:25,18,M4134.png,0
112_catch_test,112,1209,Left,19,Catch,monocular,congruent,misaligned,Left,4,1,0.814828779602522,F5,F5033.png,F5078.png,F5033.png,F5078.png,F5076.png,0.3,0.3,0.5,0.825139126730846,2019-03-06-14:44:28,19,F5078.png,1
112_catch_test,112,1209,Left,20,Catch,monocular,congruent,misaligned,Right,5,1,0.705057147598382,F4,F4040.png,F4018.png,F4040.png,F4018.png,F4064.png,0.3,0.3,0.5,0.708527574721302,2019-03-06-14:44:31,20,F4018.png,1
112_CF_CFS_catch_test,112,1210,Right,1,Catch,CFS,congruent,aligned,Right,5,1,3.80614924866541,F1,F1046.png,F1015.png,F1002.png,F1059.png,F1046.png,0.3,0.3,0.5,3.81714400482315,2019-03-07-10:23:10,41,F1059.png,0
112_CF_CFS_catch_test,112,1210,Right,2,Catch,CFS,congruent,aligned,Right,5,1,2.75508901804051,F5,F5078.png,F5068.png,F5033.png,F5076.png,F5078.png,0.3,0.3,0.5,2.75872166029239,2019-03-07-10:23:29,47,F5076.png,0
112_CF_CFS_catch_test,112,1210,Right,3,Catch,CFS,congruent,aligned,Right,5,1,2.54502601392028,F2,F2017.png,F2067.png,F2017.png,F2067.png,F2032.png,0.3,0.3,0.5,2.55023290379404,2019-03-07-10:25:50,88,F2067.png,1
112_CF_CFS_catch_test,112,1210,Right,4,Catch,CFS,congruent,aligned,Left,5,0,2.9354730133789,M4,M4134.png,M4188.png,M4134.png,M4188.png,M4136.png,0.3,0.3,0.5,2.94193834332077,2019-03-07-10:26:31,101,M4136.png,0
112_CF_CFS_catch_test,112,1210,Right,5,Catch,CFS,congruent,aligned,Left,5,0,2.36090781498797,M1,M1186.png,M1125.png,M1186.png,M1125.png,M1119.png,0.3,0.3,0.5,2.36699848699755,2019-03-07-10:29:38,161,M1119.png,0
112_CF_CFS_catch_test,112,1210,Right,6,Catch,CFS,congruent,misaligned,Left,4,1,2.23527736283131,F1,F1046.png,F1015.png,F1002.png,F1059.png,F1046.png,0.3,0.3,0.5,2.24193121927601,2019-03-07-10:31:12,188,F1059.png,0
112_CF_CFS_catch_test,112,1210,Right,7,Catch,CFS,congruent,misaligned,Left,5,0,2.25583936036492,F5,F5078.png,F5068.png,F5033.png,F5076.png,F5078.png,0.3,0.3,0.5,2.26698740122856,2019-03-07-10:32:34,212,F5078.png,0
112_CF_CFS_catch_test,112,1210,Right,8,Catch,CFS,congruent,misaligned,Right,5,1,3.18564351862278,F2,F2017.png,F2067.png,F2017.png,F2067.png,F2032.png,0.3,0.3,0.5,3.19209320415894,2019-03-07-10:34:09,244,F2067.png,1
112_CF_CFS_catch_test,112,1210,Right,9,Catch,CFS,congruent,misaligned,Right,5,1,1.88072294268295,M4,M4134.png,M4188.png,M4134.png,M4188.png,M4136.png,0.3,0.3,0.5,1.89192724229952,2019-03-07-10:34:47,250,M4188.png,1
112_CF_CFS_catch_test,112,1210,Right,10,Catch,CFS,congruent,misaligned,Left,5,0,3.48062590798918,M1,M1186.png,M1125.png,M1186.png,M1125.png,M1119.png,0.3,0.3,0.5,3.48381335776412,2019-03-07-10:34:56,252,M1119.png,0
112_CF_monocular_catch_test,112,1210,Right,1,Catch,monocular,congruent,aligned,Left,4,1,7.71628506302125,F4,F4018.png,F4040.png,F4064.png,F4020.png,F4018.png,0.3,0.3,0.5,7.7259567121252,2019-03-07-10:02:36,19,F4020.png,0
112_CF_monocular_catch_test,112,1210,Right,2,Catch,monocular,congruent,aligned,Right,5,1,4.58551336348387,M1,M1119.png,M1122.png,M1186.png,M1125.png,M1119.png,0.3,0.3,0.5,4.59219390789099,2019-03-07-10:04:40,57,M1125.png,0
112_CF_monocular_catch_test,112,1210,Right,3,Catch,monocular,congruent,aligned,Right,4,0,4.77531096608368,M4,M4188.png,M4134.png,M4188.png,M4134.png,M4197.png,0.3,0.3,0.5,4.78395884138706,2019-03-07-10:07:52,120,M4197.png,0
112_CF_monocular_catch_test,112,1210,Right,4,Catch,monocular,incongruent,aligned,Left,5,0,6.23518458831768,M3,M3183.png,M3013.png,M3153.png,M3013.png,M3187.png,0.3,0.3,0.5,6.24258057540612,2019-03-07-10:10:39,167,M3187.png,0
112_CF_monocular_catch_test,112,1210,Right,5,Catch,monocular,incongruent,aligned,Left,5,0,4.17041837828879,F5,F5078.png,F5033.png,F5068.png,F5033.png,F5076.png,0.3,0.3,0.5,4.17552809660765,2019-03-07-10:14:04,233,F5076.png,0
112_CF_monocular_catch_test,112,1210,Right,6,Catch,monocular,congruent,misaligned,Left,5,0,7.25539764037353,F4,F4018.png,F4040.png,F4064.png,F4020.png,F4018.png,0.3,0.3,0.5,7.25927677865366,2019-03-07-10:14:19,236,F4018.png,0
112_CF_monocular_catch_test,112,1210,Right,7,Catch,monocular,congruent,misaligned,Right,5,1,2.97067677250834,M1,M1119.png,M1122.png,M1186.png,M1125.png,M1119.png,0.3,0.3,0.5,2.97538480277944,2019-03-07-10:14:47,245,M1125.png,0
112_CF_monocular_catch_test,112,1210,Right,8,Catch,monocular,congruent,misaligned,Left,5,0,5.66559606879491,M4,M4188.png,M4134.png,M4188.png,M4134.png,M4197.png,0.3,0.3,0.5,5.67564237583088,2019-03-07-10:16:30,272,M4197.png,0
112_CF_monocular_catch_test,112,1210,Right,9,Catch,monocular,incongruent,misaligned,Right,4,0,4.56969219199186,M3,M3183.png,M3013.png,M3153.png,M3013.png,M3187.png,0.3,0.3,0.5,4.57558270428444,2019-03-07-10:18:07,298,M3187.png,0
112_CF_monocular_catch_test,112,1210,Right,10,Catch,monocular,incongruent,misaligned,Right,4,0,3.43979948444348,F5,F5078.png,F5033.png,F5068.png,F5033.png,F5076.png,0.3,0.3,0.5,3.45055199602007,2019-03-07-10:18:33,306,F5076.png,0
112_catch_test,112,1210,Right,1,Catch,monocular,congruent,aligned,Right,5,1,2.41186711037108,F1,F1059.png,F1046.png,F1015.png,F1002.png,F1059.png,0.3,0.3,0.5,2.41696006317534,2019-03-07-10:40:42,1,F1002.png,0
112_catch_test,112,1210,Right,2,Catch,monocular,congruent,aligned,Left,5,0,1.13002854243359,F5,F5068.png,F5078.png,F5076.png,F5033.png,F5068.png,0.3,0.3,0.5,1.13351371658609,2019-03-07-10:40:46,2,F5068.png,0
112_catch_test,112,1210,Right,3,Catch,monocular,congruent,aligned,Right,5,1,2.42460274283803,F2,F2017.png,F2032.png,F2017.png,F2032.png,F2067.png,0.3,0.3,0.5,2.43376218835829,2019-03-07-10:40:50,3,F2032.png,1
112_catch_test,112,1210,Right,4,Catch,monocular,congruent,aligned,Left,4,1,2.13012747465473,M4,M4134.png,M4136.png,M4134.png,M4136.png,M4188.png,0.3,0.3,0.5,2.13357056394398,2019-03-07-10:40:54,4,M4136.png,1
112_catch_test,112,1210,Right,5,Catch,monocular,congruent,aligned,Right,5,1,1.90049632766795,M1,M1122.png,M1186.png,M1122.png,M1186.png,M1125.png,0.3,0.3,0.5,1.90858278024234,2019-03-07-10:40:58,5,M1186.png,1
112_catch_test,112,1210,Right,6,Catch,monocular,congruent,misaligned,Right,5,1,1.30021459858926,F1,F1059.png,F1046.png,F1015.png,F1002.png,F1059.png,0.3,0.3,0.5,1.30849436781364,2019-03-07-10:41:02,6,F1002.png,0
112_catch_test,112,1210,Right,7,Catch,monocular,congruent,misaligned,Left,4,1,2.76012996353302,F5,F5068.png,F5078.png,F5076.png,F5033.png,F5068.png,0.3,0.3,0.5,2.76708012479003,2019-03-07-10:41:07,7,F5033.png,0
112_catch_test,112,1210,Right,8,Catch,monocular,congruent,misaligned,Left,4,1,2.07505373518552,F2,F2017.png,F2032.png,F2017.png,F2032.png,F2067.png,0.3,0.3,0.5,2.08369755558806,2019-03-07-10:41:11,8,F2032.png,1
112_catch_test,112,1210,Right,9,Catch,monocular,congruent,misaligned,Right,5,1,1.44475386513568,M4,M4134.png,M4136.png,M4134.png,M4136.png,M4188.png,0.3,0.3,0.5,1.45024166292023,2019-03-07-10:41:15,9,M4136.png,1
112_catch_test,112,1210,Right,10,Catch,monocular,congruent,misaligned,Left,4,1,1.95485457455607,M1,M1122.png,M1186.png,M1122.png,M1186.png,M1125.png,0.3,0.3,0.5,1.9586302369139,2019-03-07-10:41:19,10,M1186.png,1
112_catch_test,112,1210,Right,11,Catch,monocular,congruent,aligned,Left,4,1,2.16026463509661,F4,F4018.png,F4020.png,F4040.png,F4064.png,F4018.png,0.3,0.3,0.5,2.16702592769752,2019-03-07-10:41:23,11,F4064.png,0
112_catch_test,112,1210,Right,12,Catch,monocular,congruent,aligned,Left,5,0,2.90966090548818,M1,M1186.png,M1125.png,M1119.png,M1122.png,M1186.png,0.3,0.3,0.5,2.91710547835419,2019-03-07-10:41:28,12,M1186.png,0
112_catch_test,112,1210,Right,13,Catch,monocular,congruent,aligned,Right,5,1,1.35579946528242,M4,M4197.png,M4134.png,M4197.png,M4134.png,M4136.png,0.3,0.3,0.5,1.36687912180287,2019-03-07-10:41:31,13,M4134.png,1
112_catch_test,112,1210,Right,14,Catch,monocular,incongruent,aligned,Left,4,1,1.91063604257215,M3,M3013.png,M3183.png,M3153.png,M3183.png,M3187.png,0.3,0.3,0.5,1.91695150934129,2019-03-07-10:41:35,14,M3183.png,1
112_catch_test,112,1210,Right,15,Catch,monocular,incongruent,aligned,Left,4,1,1.35003794480826,F5,F5033.png,F5068.png,F5076.png,F5068.png,F5078.png,0.3,0.3,0.5,1.35861367669122,2019-03-07-10:41:39,15,F5068.png,1
112_catch_test,112,1210,Right,16,Catch,monocular,congruent,misaligned,Right,5,1,1.63982576182161,F4,F4018.png,F4020.png,F4040.png,F4064.png,F4018.png,0.3,0.3,0.5,1.65031686822931,2019-03-07-10:41:43,16,F4064.png,0
112_catch_test,112,1210,Right,17,Catch,monocular,congruent,misaligned,Right,5,1,1.27072987471001,M1,M1186.png,M1125.png,M1119.png,M1122.png,M1186.png,0.3,0.3,0.5,1.27508651347762,2019-03-07-10:41:46,17,M1122.png,0
112_catch_test,112,1210,Right,18,Catch,monocular,congruent,misaligned,Right,5,1,0.920266975425875,M4,M4197.png,M4134.png,M4197.png,M4134.png,M4136.png,0.3,0.3,0.5,0.925241293670297,2019-03-07-10:41:49,18,M4134.png,1
112_catch_test,112,1210,Right,19,Catch,monocular,incongruent,misaligned,Right,4,0,1.63504895872484,M3,M3013.png,M3183.png,M3153.png,M3183.png,M3187.png,0.3,0.3,0.5,1.64190742288065,2019-03-07-10:41:53,19,M3187.png,0
112_catch_test,112,1210,Right,20,Catch,monocular,incongruent,misaligned,Left,4,1,1.25997633667339,F5,F5033.png,F5068.png,F5076.png,F5068.png,F5078.png,0.3,0.3,0.5,1.26680229625981,2019-03-07-10:41:56,20,F5068.png,1
112_CF_CFS_catch_test,112,1211,Right,1,Catch,CFS,congruent,aligned,Left,4,1,10.9828522999205,M2,M2198.png,M2142.png,M2198.png,M2142.png,M2201.png,0.3,0.3,0.5,10.993130877745,2019-03-07-11:10:22,14,M2142.png,1
112_CF_CFS_catch_test,112,1211,Right,2,Catch,CFS,congruent,aligned,Left,5,0,4.26013098999374,F1,F1059.png,F1015.png,F1046.png,F1002.png,F1059.png,0.3,0.3,0.5,4.26729743488886,2019-03-07-11:11:02,27,F1059.png,0
112_CF_CFS_catch_test,112,1211,Right,3,Catch,CFS,congruent,aligned,Left,5,0,2.26974070933829,M5,M5146.png,M5152.png,M5146.png,M5152.png,M5154.png,0.3,0.3,0.5,2.27534860295327,2019-03-07-11:11:34,38,M5154.png,0
112_CF_CFS_catch_test,112,1211,Right,4,Catch,CFS,incongruent,aligned,Left,4,1,6.12160472664345,M4,M4134.png,M4188.png,M4134.png,M4197.png,M4136.png,0.3,0.3,0.5,6.1257775263648,2019-03-07-11:12:20,48,M4197.png,0
112_CF_CFS_catch_test,112,1211,Right,5,Catch,CFS,incongruent,aligned,Right,5,1,1.8812926280325,F2,F2017.png,F2067.png,F2032.png,F2067.png,F2016.png,0.3,0.3,0.5,1.89193188684567,2019-03-07-11:12:37,54,F2067.png,1
112_CF_CFS_catch_test,112,1211,Right,6,Catch,CFS,congruent,misaligned,Left,4,1,4.0203136451446,M2,M2198.png,M2142.png,M2198.png,M2142.png,M2201.png,0.3,0.3,0.5,4.02554360469821,2019-03-07-11:14:51,99,M2142.png,1
112_CF_CFS_catch_test,112,1211,Right,7,Catch,CFS,congruent,misaligned,Right,5,1,2.57036657626941,F1,F1059.png,F1015.png,F1046.png,F1002.png,F1059.png,0.3,0.3,0.5,2.57532506280222,2019-03-07-11:15:35,115,F1002.png,0
112_CF_CFS_catch_test,112,1211,Right,8,Catch,CFS,congruent,misaligned,Right,4,0,2.82590757890284,M5,M5146.png,M5152.png,M5146.png,M5152.png,M5154.png,0.3,0.3,0.5,2.83364263997373,2019-03-07-11:17:48,162,M5154.png,0
112_CF_CFS_catch_test,112,1211,Right,9,Catch,CFS,incongruent,misaligned,Right,5,1,3.33505060106108,M4,M4134.png,M4188.png,M4134.png,M4197.png,M4136.png,0.3,0.3,0.5,3.34206679791714,2019-03-07-11:18:49,180,M4197.png,0
112_CF_CFS_catch_test,112,1211,Right,10,Catch,CFS,incongruent,misaligned,Right,4,0,3.35063534458004,F2,F2017.png,F2067.png,F2032.png,F2067.png,F2016.png,0.3,0.3,0.5,3.35872008638762,2019-03-07-11:23:20,275,F2016.png,0
112_CF_monocular_catch_test,112,1211,Right,1,Catch,monocular,incongruent,aligned,Right,4,0,4.40578088635448,F5,F5076.png,F5078.png,F5076.png,F5068.png,F5033.png,0.3,0.3,0.5,4.40898138890952,2019-03-07-11:27:54,12,F5033.png,0
112_CF_monocular_catch_test,112,1211,Right,2,Catch,monocular,incongruent,aligned,Left,4,1,2.60557602441713,M1,M1122.png,M1186.png,M1125.png,M1186.png,M1119.png,0.3,0.3,0.5,2.60855241651916,2019-03-07-11:28:06,16,M1186.png,1
112_CF_monocular_catch_test,112,1211,Right,3,Catch,monocular,congruent,aligned,Left,4,1,4.53017553151858,M5,M5178.png,M5146.png,M5154.png,M5152.png,M5178.png,0.3,0.3,0.5,4.53402542981621,2019-03-07-11:30:43,74,M5152.png,0
112_CF_monocular_catch_test,112,1211,Right,4,Catch,monocular,congruent,aligned,Right,5,1,2.64015525550985,F2,F2016.png,F2032.png,F2016.png,F2032.png,F2017.png,0.3,0.3,0.5,2.65032371129655,2019-03-07-11:30:58,79,F2032.png,1
112_CF_monocular_catch_test,112,1211,Right,5,Catch,monocular,incongruent,aligned,Right,5,1,4.00044103568416,M4,M4136.png,M4134.png,M4136.png,M4188.png,M4197.png,0.3,0.3,0.5,4.00897942073243,2019-03-07-11:37:39,224,M4188.png,0
112_CF_monocular_catch_test,112,1211,Right,6,Catch,monocular,incongruent,misaligned,Right,4,0,3.27530959747037,F5,F5076.png,F5078.png,F5076.png,F5068.png,F5033.png,0.3,0.3,0.5,3.28373067603388,2019-03-07-11:38:44,245,F5033.png,0
112_CF_monocular_catch_test,112,1211,Right,7,Catch,monocular,incongruent,misaligned,Right,4,0,3.57011817292823,M1,M1122.png,M1186.png,M1125.png,M1186.png,M1119.png,0.3,0.3,0.5,3.57547706045443,2019-03-07-11:39:16,251,M1119.png,0
112_CF_monocular_catch_test,112,1211,Right,8,Catch,monocular,congruent,misaligned,Left,4,1,3.83574996253446,M5,M5178.png,M5146.png,M5154.png,M5152.png,M5178.png,0.3,0.3,0.5,3.84220013349022,2019-03-07-11:39:21,252,M5152.png,0
112_CF_monocular_catch_test,112,1211,Right,9,Catch,monocular,congruent,misaligned,Left,5,0,3.30999163092838,F2,F2016.png,F2032.png,F2016.png,F2032.png,F2017.png,0.3,0.3,0.5,3.31711321102011,2019-03-07-11:40:32,278,F2017.png,0
112_CF_monocular_catch_test,112,1211,Right,10,Catch,monocular,incongruent,misaligned,Left,4,1,3.95570003551529,M4,M4136.png,M4134.png,M4136.png,M4188.png,M4197.png,0.3,0.3,0.5,3.9588098674285,2019-03-07-11:40:47,282,M4188.png,0
112_catch_test,112,1211,Right,1,Catch,monocular,congruent,aligned,Left,4,1,4.45632925554946,M2,M2141.png,M2201.png,M2141.png,M2201.png,M2142.png,0.3,0.3,0.5,4.46726060724541,2019-03-07-11:44:16,1,M2201.png,1
112_catch_test,112,1211,Right,2,Catch,monocular,congruent,aligned,Right,5,1,3.26492353214508,F1,F1002.png,F1015.png,F1046.png,F1059.png,F1002.png,0.3,0.3,0.5,3.27554194348795,2019-03-07-11:44:21,2,F1059.png,0
112_catch_test,112,1211,Right,3,Catch,monocular,congruent,aligned,Right,5,1,0.945679389981706,M5,M5146.png,M5154.png,M5146.png,M5154.png,M5152.png,0.3,0.3,0.5,0.95017449477109,2019-03-07-11:44:24,3,M5154.png,1
112_catch_test,112,1211,Right,4,Catch,monocular,incongruent,aligned,Left,4,1,2.1508297561204,M4,M4197.png,M4136.png,M4197.png,M4188.png,M4134.png,0.3,0.3,0.5,2.15864385461828,2019-03-07-11:44:28,4,M4188.png,0
112_catch_test,112,1211,Right,5,Catch,monocular,incongruent,aligned,Right,5,1,1.19459561920485,F2,F2067.png,F2032.png,F2016.png,F2032.png,F2017.png,0.3,0.3,0.5,1.20026304750536,2019-03-07-11:44:32,5,F2032.png,1
112_catch_test,112,1211,Right,6,Catch,monocular,congruent,misaligned,Right,5,1,1.30062312970404,M2,M2141.png,M2201.png,M2141.png,M2201.png,M2142.png,0.3,0.3,0.5,1.30858024830741,2019-03-07-11:44:35,6,M2201.png,1
112_catch_test,112,1211,Right,7,Catch,monocular,congruent,misaligned,Left,4,1,0.825279043174305,F1,F1002.png,F1015.png,F1046.png,F1059.png,F1002.png,0.3,0.3,0.5,0.83337097020285,2019-03-07-11:44:38,7,F1059.png,0
112_catch_test,112,1211,Right,8,Catch,monocular,congruent,misaligned,Right,5,1,0.765063472870679,M5,M5146.png,M5154.png,M5146.png,M5154.png,M5152.png,0.3,0.3,0.5,0.775030058172888,2019-03-07-11:44:41,8,M5154.png,1
112_catch_test,112,1211,Right,9,Catch,monocular,incongruent,misaligned,Right,5,1,1.57515261750723,M4,M4197.png,M4136.png,M4197.png,M4188.png,M4134.png,0.3,0.3,0.5,1.58340604092336,2019-03-07-11:44:45,9,M4188.png,0
112_catch_test,112,1211,Right,10,Catch,monocular,incongruent,misaligned,Right,5,1,0.715057758909097,F2,F2067.png,F2032.png,F2016.png,F2032.png,F2017.png,0.3,0.3,0.5,0.725205685494075,2019-03-07-11:44:48,10,F2032.png,1
112_catch_test,112,1211,Right,11,Catch,monocular,incongruent,aligned,Right,5,1,1.31014696855618,F5,F5076.png,F5068.png,F5076.png,F5078.png,F5033.png,0.3,0.3,0.5,1.3165951908295,2019-03-07-11:44:51,11,F5078.png,0
112_catch_test,112,1211,Right,12,Catch,monocular,incongruent,aligned,Right,5,1,0.780229420673095,M1,M1122.png,M1119.png,M1186.png,M1119.png,M1125.png,0.3,0.3,0.5,0.783452847503213,2019-03-07-11:44:54,12,M1119.png,1
112_catch_test,112,1211,Right,13,Catch,monocular,congruent,aligned,Left,4,1,1.3507438071947,M5,M5154.png,M5152.png,M5178.png,M5146.png,M5154.png,0.3,0.3,0.5,1.3585836971688,2019-03-07-11:44:57,13,M5146.png,0
112_catch_test,112,1211,Right,14,Catch,monocular,congruent,aligned,Left,4,1,0.660036076649703,F2,F2032.png,F2017.png,F2032.png,F2017.png,F2016.png,0.3,0.3,0.5,0.666722779817974,2019-03-07-11:45:00,14,F2017.png,1
112_catch_test,112,1211,Right,15,Catch,monocular,incongruent,aligned,Left,4,1,0.990525773386253,M4,M4188.png,M4134.png,M4188.png,M4197.png,M4136.png,0.3,0.3,0.5,1.00013480842517,2019-03-07-11:45:03,15,M4197.png,0
112_catch_test,112,1211,Right,16,Catch,monocular,incongruent,misaligned,Left,4,1,0.775706495371196,F5,F5076.png,F5068.png,F5076.png,F5078.png,F5033.png,0.3,0.3,0.5,0.783451821042945,2019-03-07-11:45:06,16,F5078.png,0
112_catch_test,112,1211,Right,17,Catch,monocular,incongruent,misaligned,Right,5,1,0.779543403181378,M1,M1122.png,M1119.png,M1186.png,M1119.png,M1125.png,0.3,0.3,0.5,0.783484667766061,2019-03-07-11:45:09,17,M1119.png,1
112_catch_test,112,1211,Right,18,Catch,monocular,congruent,misaligned,Left,4,1,0.614903310881346,M5,M5154.png,M5152.png,M5178.png,M5146.png,M5154.png,0.3,0.3,0.5,0.625113311778478,2019-03-07-11:45:12,18,M5146.png,0
112_catch_test,112,1211,Right,19,Catch,monocular,congruent,misaligned,Left,4,1,0.600070962607788,F2,F2032.png,F2017.png,F2032.png,F2017.png,F2016.png,0.3,0.3,0.5,0.608421215424642,2019-03-07-11:45:15,19,F2017.png,1
112_catch_test,112,1211,Right,20,Catch,monocular,incongruent,misaligned,Left,4,1,0.819902103079585,M4,M4188.png,M4134.png,M4188.png,M4197.png,M4136.png,0.3,0.3,0.5,0.825142866136957,2019-03-07-11:45:18,20,M4197.png,0
112_CF_CFS_catch_test,112,1212,Left,1,Catch,CFS,incongruent,aligned,Left,5,0,2.73009574135722,M3,M3013.png,M3183.png,M3187.png,M3183.png,M3153.png,0.3,0.3,0.5,2.73366816461566,2019-03-07-16:20:57,3,M3153.png,0
112_CF_CFS_catch_test,112,1212,Left,2,Catch,CFS,incongruent,aligned,Right,5,1,1.65042704161169,M4,M4134.png,M4188.png,M4136.png,M4188.png,M4197.png,0.3,0.3,0.5,1.65851417849262,2019-03-07-16:22:18,33,M4188.png,1
112_CF_CFS_catch_test,112,1212,Left,3,Catch,CFS,congruent,aligned,Left,4,1,2.5199697810167,F4,F4020.png,F4040.png,F4018.png,F4064.png,F4020.png,0.3,0.3,0.5,2.52529813533329,2019-03-07-16:22:41,41,F4064.png,0
112_CF_CFS_catch_test,112,1212,Left,4,Catch,CFS,incongruent,aligned,Right,4,0,2.1800155355777,F2,F2032.png,F2016.png,F2032.png,F2067.png,F2017.png,0.3,0.3,0.5,2.18356708748252,2019-03-07-16:24:37,71,F2017.png,0
112_CF_CFS_catch_test,112,1212,Left,5,Catch,CFS,congruent,aligned,Left,4,1,1.58508464532133,M1,M1186.png,M1119.png,M1122.png,M1125.png,M1186.png,0.3,0.3,0.5,1.59189520800646,2019-03-07-16:28:09,131,M1125.png,0
112_CF_CFS_catch_test,112,1212,Left,6,Catch,CFS,incongruent,misaligned,Right,4,0,1.66545339084041,M3,M3013.png,M3183.png,M3187.png,M3183.png,M3153.png,0.3,0.3,0.5,1.67520852536472,2019-03-07-16:28:28,137,M3153.png,0
112_CF_CFS_catch_test,112,1212,Left,7,Catch,CFS,incongruent,misaligned,Left,4,1,2.97509157734748,M4,M4134.png,M4188.png,M4136.png,M4188.png,M4197.png,0.3,0.3,0.5,2.98368373259291,2019-03-07-16:28:35,139,M4188.png,1
112_CF_CFS_catch_test,112,1212,Left,8,Catch,CFS,congruent,misaligned,Right,5,1,1.88064322094942,F4,F4020.png,F4040.png,F4018.png,F4064.png,F4020.png,0.3,0.3,0.5,1.88360353184544,2019-03-07-16:29:41,163,F4064.png,0
112_CF_CFS_catch_test,112,1212,Left,9,Catch,CFS,incongruent,misaligned,Right,4,0,2.43555165044381,F2,F2032.png,F2016.png,F2032.png,F2067.png,F2017.png,0.3,0.3,0.5,2.44197660628924,2019-03-07-16:36:54,300,F2017.png,0
112_CF_CFS_catch_test,112,1212,Left,10,Catch,CFS,congruent,misaligned,Left,4,1,2.03545016775752,M1,M1186.png,M1119.png,M1122.png,M1125.png,M1186.png,0.3,0.3,0.5,2.04189462634531,2019-03-07-16:37:14,307,M1125.png,0
112_CF_monocular_catch_test,112,1212,Left,1,Catch,monocular,incongruent,aligned,Left,5,0,8.0475586331122,M5,M5178.png,M5152.png,M5178.png,M5146.png,M5154.png,0.3,0.3,0.5,8.05110881640212,2019-03-07-16:02:52,17,M5154.png,0
112_CF_monocular_catch_test,112,1212,Left,2,Catch,monocular,incongruent,aligned,Left,4,1,2.77024675416033,M2,M2141.png,M2198.png,M2141.png,M2142.png,M2201.png,0.3,0.3,0.5,2.77528769965284,2019-03-07-16:02:59,19,M2142.png,0
112_CF_monocular_catch_test,112,1212,Left,3,Catch,monocular,congruent,aligned,Left,4,1,2.58989292652768,F3,F3079.png,F3047.png,F3062.png,F3112.png,F3079.png,0.3,0.3,0.5,2.60043261871033,2019-03-07-16:05:32,68,F3112.png,0
112_CF_monocular_catch_test,112,1212,Left,4,Catch,monocular,congruent,aligned,Right,4,0,3.93570596161226,F4,F4064.png,F4040.png,F4018.png,F4020.png,F4064.png,0.3,0.3,0.5,3.94222364101734,2019-03-07-16:06:38,86,F4064.png,0
112_CF_monocular_catch_test,112,1212,Left,5,Catch,monocular,incongruent,aligned,Left,5,0,3.27533115313418,M3,M3013.png,M3153.png,M3183.png,M3153.png,M3187.png,0.3,0.3,0.5,3.28378405196054,2019-03-07-16:07:11,97,M3187.png,0
112_CF_monocular_catch_test,112,1212,Left,6,Catch,monocular,incongruent,misaligned,Right,5,1,2.51586975726968,M5,M5178.png,M5152.png,M5178.png,M5146.png,M5154.png,0.3,0.3,0.5,2.52530429409308,2019-03-07-16:09:42,147,M5146.png,0
112_CF_monocular_catch_test,112,1212,Left,7,Catch,monocular,incongruent,misaligned,Right,4,0,2.22973476955667,M2,M2141.png,M2198.png,M2141.png,M2142.png,M2201.png,0.3,0.3,0.5,2.23365413632928,2019-03-07-16:14:42,234,M2201.png,0
112_CF_monocular_catch_test,112,1212,Left,8,Catch,monocular,congruent,misaligned,Right,5,1,2.22033547453248,F3,F3079.png,F3047.png,F3062.png,F3112.png,F3079.png,0.3,0.3,0.5,2.22534562622241,2019-03-07-16:16:42,272,F3112.png,0
112_CF_monocular_catch_test,112,1212,Left,9,Catch,monocular,congruent,misaligned,Right,5,1,2.09047219216882,F4,F4064.png,F4040.png,F4018.png,F4020.png,F4064.png,0.3,0.3,0.5,2.10031491795235,2019-03-07-16:17:21,286,F4020.png,0
112_CF_monocular_catch_test,112,1212,Left,10,Catch,monocular,incongruent,misaligned,Left,4,1,2.81060408544727,M3,M3013.png,M3153.png,M3183.png,M3153.png,M3187.png,0.3,0.3,0.5,2.81695616262732,2019-03-07-16:18:07,295,M3153.png,1
112_catch_test,112,1212,Left,1,Catch,monocular,incongruent,aligned,Left,5,0,2.8955864269119,M3,M3187.png,M3013.png,M3183.png,M3013.png,M3153.png,0.3,0.3,0.5,2.90040189334104,2019-03-07-16:39:35,1,M3153.png,0
112_catch_test,112,1212,Left,2,Catch,monocular,incongruent,aligned,Left,4,1,1.20010120896768,M4,M4188.png,M4197.png,M4136.png,M4197.png,M4134.png,0.3,0.3,0.5,1.20849594171887,2019-03-07-16:39:38,2,M4197.png,1
112_catch_test,112,1212,Left,3,Catch,monocular,congruent,aligned,Right,4,0,3.12091778218382,F4,F4018.png,F4040.png,F4020.png,F4064.png,F4018.png,0.3,0.3,0.5,3.12531342643706,2019-03-07-16:39:44,3,F4018.png,0
112_catch_test,112,1212,Left,4,Catch,monocular,incongruent,aligned,Right,5,1,1.96549187994242,F2,F2067.png,F2017.png,F2067.png,F2016.png,F2032.png,0.3,0.3,0.5,1.97493018045498,2019-03-07-16:39:48,4,F2016.png,0
112_catch_test,112,1212,Left,5,Catch,monocular,congruent,aligned,Left,4,1,2.2555201312789,M1,M1186.png,M1119.png,M1125.png,M1122.png,M1186.png,0.3,0.3,0.5,2.25849926060619,2019-03-07-16:39:52,5,M1122.png,0
112_catch_test,112,1212,Left,6,Catch,monocular,incongruent,misaligned,Left,4,1,1.38593256978493,M3,M3187.png,M3013.png,M3183.png,M3013.png,M3153.png,0.3,0.3,0.5,1.39189443985015,2019-03-07-16:39:56,6,M3013.png,1
112_catch_test,112,1212,Left,7,Catch,monocular,incongruent,misaligned,Left,4,1,0.900321829452878,M4,M4188.png,M4197.png,M4136.png,M4197.png,M4134.png,0.3,0.3,0.5,0.908505795734527,2019-03-07-16:39:59,7,M4197.png,1
112_catch_test,112,1212,Left,8,Catch,monocular,congruent,misaligned,Right,5,1,1.30506652922122,F4,F4018.png,F4040.png,F4020.png,F4064.png,F4018.png,0.3,0.3,0.5,1.30843605553673,2019-03-07-16:40:02,8,F4064.png,0
112_catch_test,112,1212,Left,9,Catch,monocular,incongruent,misaligned,Right,4,0,1.23960623622406,F2,F2067.png,F2017.png,F2067.png,F2016.png,F2032.png,0.3,0.3,0.5,1.25026568208341,2019-03-07-16:40:06,9,F2032.png,0
112_catch_test,112,1212,Left,10,Catch,monocular,congruent,misaligned,Left,4,1,1.38558459981141,M1,M1186.png,M1119.png,M1125.png,M1122.png,M1186.png,0.3,0.3,0.5,1.39177073261089,2019-03-07-16:40:09,10,M1122.png,0
112_catch_test,112,1212,Left,11,Catch,monocular,incongruent,aligned,Right,5,1,1.03498929021589,M5,M5154.png,M5146.png,M5154.png,M5152.png,M5178.png,0.3,0.3,0.5,1.04178308738483,2019-03-07-16:40:12,11,M5152.png,0
112_catch_test,112,1212,Left,12,Catch,monocular,incongruent,aligned,Right,5,1,1.14045806123613,M2,M2201.png,M2141.png,M2201.png,M2198.png,M2142.png,0.3,0.3,0.5,1.15009686361736,2019-03-07-16:40:15,12,M2198.png,0
112_catch_test,112,1212,Left,13,Catch,monocular,congruent,aligned,Left,5,0,0.970605946764408,F3,F3112.png,F3079.png,F3062.png,F3047.png,F3112.png,0.3,0.3,0.5,0.975169246161386,2019-03-07-16:40:19,13,F3112.png,0
112_catch_test,112,1212,Left,14,Catch,monocular,congruent,aligned,Right,5,1,1.18039385958036,F4,F4040.png,F4020.png,F4064.png,F4018.png,F4040.png,0.3,0.3,0.5,1.18347152907518,2019-03-07-16:40:22,14,F4018.png,0
112_catch_test,112,1212,Left,15,Catch,monocular,incongruent,aligned,Right,5,1,1.07992189322977,M3,M3183.png,M3187.png,M3153.png,M3187.png,M3013.png,0.3,0.3,0.5,1.08356411577552,2019-03-07-16:40:25,15,M3187.png,1
112_catch_test,112,1212,Left,16,Catch,monocular,incongruent,misaligned,Left,4,1,0.935358333797922,M5,M5154.png,M5146.png,M5154.png,M5152.png,M5178.png,0.3,0.3,0.5,0.941913307920913,2019-03-07-16:40:28,16,M5152.png,0
112_catch_test,112,1212,Left,17,Catch,monocular,incongruent,misaligned,Right,5,1,8.14502204494056,M2,M2201.png,M2141.png,M2201.png,M2198.png,M2142.png,0.3,0.3,0.5,8.15104951503235,2019-03-07-16:40:38,17,M2198.png,0
112_catch_test,112,1212,Left,18,Catch,monocular,congruent,misaligned,Left,4,1,5.29513601622602,F3,F3112.png,F3079.png,F3062.png,F3047.png,F3112.png,0.3,0.3,0.5,5.30060123188741,2019-03-07-16:40:46,18,F3047.png,0
112_catch_test,112,1212,Left,19,Catch,monocular,congruent,misaligned,Right,5,1,1.15578174174152,F4,F4040.png,F4020.png,F4064.png,F4018.png,F4040.png,0.3,0.3,0.5,1.16684698149038,2019-03-07-16:40:49,19,F4018.png,0
112_catch_test,112,1212,Left,20,Catch,monocular,incongruent,misaligned,Left,4,1,0.870173328050441,M3,M3183.png,M3187.png,M3153.png,M3187.png,M3013.png,0.3,0.3,0.5,0.875163485605299,2019-03-07-16:40:52,20,M3187.png,1
112_CF_CFS_catch_test,112,1213,Right,1,Catch,CFS,incongruent,aligned,Left,5,0,6.62308248701811,F1,F1002.png,F1046.png,F1002.png,F1015.png,F1059.png,0.3,0.3,0.5,6.63422779065513,2019-03-07-16:55:11,3,F1059.png,0
112_CF_CFS_catch_test,112,1213,Right,2,Catch,CFS,incongruent,aligned,Left,4,1,7.9184528782971,F3,F3079.png,F3047.png,F3079.png,F3112.png,F3062.png,0.3,0.3,0.5,7.92600249224415,2019-03-07-16:56:10,18,F3112.png,0
112_CF_CFS_catch_test,112,1213,Right,3,Catch,CFS,incongruent,aligned,Right,4,0,7.61125629819071,M4,M4134.png,M4136.png,M4134.png,M4188.png,M4197.png,0.3,0.3,0.5,7.61753583885729,2019-03-07-16:56:47,25,M4197.png,0
112_CF_CFS_catch_test,112,1213,Right,4,Catch,CFS,incongruent,aligned,Left,4,1,4.55137614092018,M2,M2201.png,M2142.png,M2198.png,M2142.png,M2141.png,0.3,0.3,0.5,4.55886348295826,2019-03-07-17:00:00,81,M2142.png,1
112_CF_CFS_catch_test,112,1213,Right,5,Catch,CFS,incongruent,aligned,Right,5,1,5.62580397486454,F4,F4018.png,F4064.png,F4018.png,F4020.png,F4040.png,0.3,0.3,0.5,5.63392566923358,2019-03-07-17:02:09,120,F4020.png,0
112_CF_CFS_catch_test,112,1213,Right,6,Catch,CFS,incongruent,misaligned,Right,5,1,4.00482881040807,F1,F1002.png,F1046.png,F1002.png,F1015.png,F1059.png,0.3,0.3,0.5,4.00896969341557,2019-03-07-17:02:55,131,F1015.png,0
112_CF_CFS_catch_test,112,1213,Right,7,Catch,CFS,incongruent,misaligned,Left,4,1,3.78589205882599,F3,F3079.png,F3047.png,F3079.png,F3112.png,F3062.png,0.3,0.3,0.5,3.79215996628045,2019-03-07-17:07:36,221,F3112.png,0
112_CF_CFS_catch_test,112,1213,Right,8,Catch,CFS,incongruent,misaligned,Left,4,1,3.62531298479007,M4,M4134.png,M4136.png,M4134.png,M4188.png,M4197.png,0.3,0.3,0.5,3.63392395846677,2019-03-07-17:08:04,230,M4188.png,0
112_CF_CFS_catch_test,112,1213,Right,9,Catch,CFS,incongruent,misaligned,Right,4,0,2.1058114655425,M2,M2201.png,M2142.png,M2198.png,M2142.png,M2141.png,0.3,0.3,0.5,2.10842072708692,2019-03-07-17:10:18,276,M2141.png,0
112_CF_CFS_catch_test,112,1213,Right,10,Catch,CFS,incongruent,misaligned,Right,5,1,7.69586500817968,F4,F4018.png,F4064.png,F4018.png,F4020.png,F4040.png,0.3,0.3,0.5,7.70095214437606,2019-03-07-17:11:25,295,F4020.png,0
112_CF_monocular_catch_test,112,1213,Right,1,Catch,monocular,congruent,aligned,Left,4,1,3.83093175887916,F2,F2016.png,F2067.png,F2016.png,F2067.png,F2017.png,0.3,0.3,0.5,3.84217012823137,2019-03-07-17:14:35,7,F2067.png,1
112_CF_monocular_catch_test,112,1213,Right,2,Catch,monocular,congruent,aligned,Right,5,1,1.56469606858809,F4,F4020.png,F4064.png,F4020.png,F4064.png,F4018.png,0.3,0.3,0.5,1.57518341131072,2019-03-07-17:15:08,16,F4064.png,1
112_CF_monocular_catch_test,112,1213,Right,3,Catch,monocular,incongruent,aligned,Right,5,1,2.44562669836523,M3,M3013.png,M3153.png,M3183.png,M3153.png,M3187.png,0.3,0.3,0.5,2.45022900324693,2019-03-07-17:15:34,24,M3153.png,1
112_CF_monocular_catch_test,112,1213,Right,4,Catch,monocular,congruent,aligned,Right,5,1,1.46548493738374,M2,M2198.png,M2142.png,M2198.png,M2142.png,M2141.png,0.3,0.3,0.5,1.47524212482676,2019-03-07-17:16:04,34,M2142.png,1
112_CF_monocular_catch_test,112,1213,Right,5,Catch,monocular,incongruent,aligned,Right,5,1,5.01528809655429,M5,M5154.png,M5152.png,M5154.png,M5178.png,M5146.png,0.3,0.3,0.5,5.02569811261492,2019-03-07-17:20:18,115,M5178.png,0
112_CF_monocular_catch_test,112,1213,Right,6,Catch,monocular,congruent,misaligned,Left,4,1,2.00013070258501,F2,F2016.png,F2067.png,F2016.png,F2067.png,F2017.png,0.3,0.3,0.5,2.00874142803514,2019-03-07-17:21:55,145,F2067.png,1
112_CF_monocular_catch_test,112,1213,Right,7,Catch,monocular,congruent,misaligned,Left,4,1,1.824963577772,F4,F4020.png,F4064.png,F4020.png,F4064.png,F4018.png,0.3,0.3,0.5,1.83368759848236,2019-03-07-17:22:07,149,F4064.png,1
112_CF_monocular_catch_test,112,1213,Right,8,Catch,monocular,incongruent,misaligned,Right,5,1,2.71013246125221,M3,M3013.png,M3153.png,M3183.png,M3153.png,M3187.png,0.3,0.3,0.5,2.71711752215197,2019-03-07-17:22:31,157,M3153.png,1
112_CF_monocular_catch_test,112,1213,Right,9,Catch,monocular,congruent,misaligned,Left,4,1,2.15536397248434,M2,M2198.png,M2142.png,M2198.png,M2142.png,M2141.png,0.3,0.3,0.5,2.15860348052229,2019-03-07-17:30:46,320,M2142.png,1
112_CF_monocular_catch_test,112,1213,Right,10,Catch,monocular,incongruent,misaligned,Left,5,0,2.23004818203844,M5,M5154.png,M5152.png,M5154.png,M5178.png,M5146.png,0.3,0.3,0.5,2.23363600219818,2019-03-07-17:30:59,324,M5146.png,0
112_catch_test,112,1213,Right,1,Catch,monocular,incongruent,aligned,Left,4,1,2.66642887008129,F1,F1002.png,F1059.png,F1002.png,F1046.png,F1015.png,0.3,0.3,0.5,2.67534709747997,2019-03-07-17:32:39,1,F1046.png,0
112_catch_test,112,1213,Right,2,Catch,monocular,incongruent,aligned,Right,5,1,4.36060672002714,F3,F3047.png,F3112.png,F3047.png,F3062.png,F3079.png,0.3,0.3,0.5,4.36733174437177,2019-03-07-17:32:45,2,F3062.png,0
112_catch_test,112,1213,Right,3,Catch,monocular,incongruent,aligned,Right,4,0,1.4903570917777,M4,M4136.png,M4134.png,M4136.png,M4197.png,M4188.png,0.3,0.3,0.5,1.50025640624153,2019-03-07-17:32:49,3,M4188.png,0
112_catch_test,112,1213,Right,4,Catch,monocular,incongruent,aligned,Right,5,1,6.54068066621403,M2,M2141.png,M2198.png,M2142.png,M2198.png,M2201.png,0.3,0.3,0.5,6.5509264486609,2019-03-07-17:32:57,4,M2198.png,1
112_catch_test,112,1213,Right,5,Catch,monocular,incongruent,aligned,Right,4,0,5.11026097405556,F4,F4040.png,F4064.png,F4040.png,F4018.png,F4020.png,0.3,0.3,0.5,5.11735791910542,2019-03-07-17:33:05,5,F4020.png,0
112_catch_test,112,1213,Right,6,Catch,monocular,incongruent,misaligned,Left,5,0,3.94542756510782,F1,F1002.png,F1059.png,F1002.png,F1046.png,F1015.png,0.3,0.3,0.5,3.95048390750162,2019-03-07-17:33:11,6,F1015.png,0
112_catch_test,112,1213,Right,7,Catch,monocular,incongruent,misaligned,Right,4,0,2.53578264803946,F3,F3047.png,F3112.png,F3047.png,F3062.png,F3079.png,0.3,0.3,0.5,2.5419790454398,2019-03-07-17:33:15,7,F3079.png,0
112_catch_test,112,1213,Right,8,Catch,monocular,incongruent,misaligned,Left,4,1,3.55022298134645,M4,M4136.png,M4134.png,M4136.png,M4197.png,M4188.png,0.3,0.3,0.5,3.55881650520314,2019-03-07-17:33:21,8,M4197.png,0
112_catch_test,112,1213,Right,9,Catch,monocular,incongruent,misaligned,Left,5,0,1.40967527592875,M2,M2141.png,M2198.png,M2142.png,M2198.png,M2201.png,0.3,0.3,0.5,1.416859127934,2019-03-07-17:33:25,9,M2201.png,0
112_catch_test,112,1213,Right,10,Catch,monocular,incongruent,misaligned,Left,5,0,2.54513247581053,F4,F4040.png,F4064.png,F4040.png,F4018.png,F4020.png,0.3,0.3,0.5,2.55025724887673,2019-03-07-17:33:29,10,F4020.png,0
112_catch_test,112,1213,Right,11,Catch,monocular,congruent,aligned,Left,4,1,1.34078474926719,F2,F2017.png,F2032.png,F2017.png,F2032.png,F2067.png,0.3,0.3,0.5,1.35020867933417,2019-03-07-17:33:33,11,F2032.png,1
112_catch_test,112,1213,Right,12,Catch,monocular,congruent,aligned,Right,5,1,1.18488393815642,F4,F4064.png,F4018.png,F4064.png,F4018.png,F4020.png,0.3,0.3,0.5,1.19184539047637,2019-03-07-17:33:36,12,F4018.png,1
112_catch_test,112,1213,Right,13,Catch,monocular,incongruent,aligned,Right,5,1,1.04503970005317,M3,M3013.png,M3153.png,M3187.png,M3153.png,M3183.png,0.3,0.3,0.5,1.04992257069171,2019-03-07-17:33:39,13,M3153.png,1
112_catch_test,112,1213,Right,14,Catch,monocular,congruent,aligned,Left,4,1,1.04569287082268,M2,M2198.png,M2201.png,M2198.png,M2201.png,M2142.png,0.3,0.3,0.5,1.05007482894143,2019-03-07-17:33:42,14,M2201.png,1
112_catch_test,112,1213,Right,15,Catch,monocular,incongruent,aligned,Right,4,0,2.03051836918894,M5,M5154.png,M5178.png,M5154.png,M5146.png,M5152.png,0.3,0.3,0.5,2.03347936438877,2019-03-07-17:33:47,15,M5152.png,0
112_catch_test,112,1213,Right,16,Catch,monocular,congruent,misaligned,Left,4,1,1.08494333598355,F2,F2017.png,F2032.png,F2017.png,F2032.png,F2067.png,0.3,0.3,0.5,1.09192027798781,2019-03-07-17:33:50,16,F2032.png,1
112_catch_test,112,1213,Right,17,Catch,monocular,congruent,misaligned,Right,5,1,1.19553004004047,F4,F4064.png,F4018.png,F4064.png,F4018.png,F4020.png,0.3,0.3,0.5,1.20024833491334,2019-03-07-17:33:53,17,F4018.png,1
112_catch_test,112,1213,Right,18,Catch,monocular,incongruent,misaligned,Left,4,1,1.00017928836314,M3,M3013.png,M3153.png,M3187.png,M3153.png,M3183.png,0.3,0.3,0.5,1.00861097368033,2019-03-07-17:33:56,18,M3153.png,1
112_catch_test,112,1213,Right,19,Catch,monocular,congruent,misaligned,Right,5,1,0.939892550155491,M2,M2198.png,M2201.png,M2198.png,M2201.png,M2142.png,0.3,0.3,0.5,0.950132515994483,2019-03-07-17:33:59,19,M2201.png,1
112_catch_test,112,1213,Right,20,Catch,monocular,incongruent,misaligned,Left,4,1,1.50512032507322,M5,M5154.png,M5178.png,M5154.png,M5146.png,M5152.png,0.3,0.3,0.5,1.50856649373964,2019-03-07-17:34:03,20,M5146.png,0
112_CF_CFS_catch_test,112,1214,Right,1,Catch,CFS,congruent,aligned,Right,5,1,2.24530753769795,F5,F5076.png,F5033.png,F5076.png,F5033.png,F5068.png,0.3,0.3,0.5,2.25031138124177,2019-03-08-10:25:18,6,F5033.png,1
112_CF_CFS_catch_test,112,1214,Right,2,Catch,CFS,congruent,aligned,Right,5,1,1.96569707247545,M1,M1119.png,M1186.png,M1119.png,M1186.png,M1122.png,0.3,0.3,0.5,1.97524212482676,2019-03-08-10:31:50,140,M1186.png,1
112_CF_CFS_catch_test,112,1214,Right,3,Catch,CFS,congruent,aligned,Right,5,1,2.1808520029299,F1,F1015.png,F1046.png,F1015.png,F1046.png,F1002.png,0.3,0.3,0.5,2.19198738412524,2019-03-08-10:32:14,148,F1046.png,1
112_CF_CFS_catch_test,112,1214,Right,4,Catch,CFS,incongruent,aligned,Left,4,1,3.93577473443293,M4,M4197.png,M4188.png,M4197.png,M4136.png,M4134.png,0.3,0.3,0.5,3.94213536544703,2019-03-08-10:33:57,182,M4136.png,0
112_CF_CFS_catch_test,112,1214,Right,5,Catch,CFS,incongruent,aligned,Left,5,0,3.26557157062052,F3,F3079.png,F3112.png,F3062.png,F3112.png,F3047.png,0.3,0.3,0.5,3.27543243052787,2019-03-08-10:37:23,251,F3047.png,0
112_CF_CFS_catch_test,112,1214,Right,6,Catch,CFS,congruent,misaligned,Right,4,0,3.05039234727155,F5,F5076.png,F5033.png,F5076.png,F5033.png,F5068.png,0.3,0.3,0.5,3.0588323904376,2019-03-08-10:37:31,253,F5068.png,0
112_CF_CFS_catch_test,112,1214,Right,7,Catch,CFS,congruent,misaligned,Left,4,1,1.68549228683696,M1,M1119.png,M1186.png,M1119.png,M1186.png,M1122.png,0.3,0.3,0.5,1.69193400819495,2019-03-08-10:38:24,273,M1186.png,1
112_CF_CFS_catch_test,112,1214,Right,8,Catch,CFS,congruent,misaligned,Left,4,1,2.31541373526852,F1,F1015.png,F1046.png,F1015.png,F1046.png,F1002.png,0.3,0.3,0.5,2.32531941727211,2019-03-08-10:39:55,303,F1046.png,1
112_CF_CFS_catch_test,112,1214,Right,9,Catch,CFS,incongruent,misaligned,Right,4,0,3.59498895870638,M4,M4197.png,M4188.png,M4197.png,M4136.png,M4134.png,0.3,0.3,0.5,3.60049410672218,2019-03-08-10:40:18,310,M4134.png,0
112_CF_CFS_catch_test,112,1214,Right,10,Catch,CFS,incongruent,misaligned,Left,4,1,4.57069538565702,F3,F3079.png,F3112.png,F3062.png,F3112.png,F3047.png,0.3,0.3,0.5,4.57558373075153,2019-03-08-10:40:33,314,F3112.png,1
112_CF_monocular_catch_test,112,1214,Right,1,Catch,monocular,incongruent,aligned,Left,4,1,5.00311872789462,F4,F4064.png,F4020.png,F4064.png,F4040.png,F4018.png,0.3,0.3,0.5,5.00909409421729,2019-03-08-10:08:02,16,F4040.png,0
112_CF_monocular_catch_test,112,1214,Right,2,Catch,monocular,congruent,aligned,Left,4,1,3.15561569931742,F5,F5068.png,F5078.png,F5076.png,F5033.png,F5068.png,0.3,0.3,0.5,3.16704103113443,2019-03-08-10:08:33,26,F5033.png,0
112_CF_monocular_catch_test,112,1214,Right,3,Catch,monocular,congruent,aligned,Right,5,1,3.70631642479566,F1,F1059.png,F1002.png,F1059.png,F1002.png,F1046.png,0.3,0.3,0.5,3.71711512707407,2019-03-08-10:11:53,87,F1002.png,1
112_CF_monocular_catch_test,112,1214,Right,4,Catch,monocular,incongruent,aligned,Right,5,1,2.57522173249163,M2,M2142.png,M2198.png,M2142.png,M2201.png,M2141.png,0.3,0.3,0.5,2.58378612462548,2019-03-08-10:12:03,90,M2201.png,0
112_CF_monocular_catch_test,112,1214,Right,5,Catch,monocular,congruent,aligned,Right,5,1,2.11043273504765,F2,F2016.png,F2067.png,F2016.png,F2067.png,F2017.png,0.3,0.3,0.5,2.11696752211719,2019-03-08-10:12:37,101,F2067.png,1
112_CF_monocular_catch_test,112,1214,Right,6,Catch,monocular,incongruent,misaligned,Right,5,1,3.45000797217654,F4,F4064.png,F4020.png,F4064.png,F4040.png,F4018.png,0.3,0.3,0.5,3.45887898241926,2019-03-08-10:17:22,197,F4040.png,0
112_CF_monocular_catch_test,112,1214,Right,7,Catch,monocular,congruent,misaligned,Left,4,1,2.30534997840005,F5,F5068.png,F5078.png,F5076.png,F5033.png,F5068.png,0.3,0.3,0.5,2.30853439975181,2019-03-08-10:18:24,216,F5033.png,0
112_CF_monocular_catch_test,112,1214,Right,8,Catch,monocular,congruent,misaligned,Right,5,1,7.42579206793744,F1,F1059.png,F1002.png,F1059.png,F1002.png,F1046.png,0.3,0.3,0.5,7.43424496676016,2019-03-08-10:18:36,218,F1002.png,1
112_CF_monocular_catch_test,112,1214,Right,9,Catch,monocular,incongruent,misaligned,Left,4,1,2.25995614963176,M2,M2142.png,M2198.png,M2142.png,M2201.png,M2141.png,0.3,0.3,0.5,2.26707978264312,2019-03-08-10:19:05,228,M2201.png,0
112_CF_monocular_catch_test,112,1214,Right,10,Catch,monocular,congruent,misaligned,Left,4,1,2.49547160025395,F2,F2016.png,F2067.png,F2016.png,F2067.png,F2017.png,0.3,0.3,0.5,2.50030001981941,2019-03-08-10:21:33,279,F2067.png,1
112_catch_test,112,1214,Right,1,Catch,monocular,congruent,aligned,Right,5,1,3.06186714458454,F5,F5033.png,F5076.png,F5033.png,F5076.png,F5068.png,0.3,0.3,0.5,3.06704768864438,2019-03-08-10:42:55,1,F5076.png,1
112_catch_test,112,1214,Right,2,Catch,monocular,congruent,aligned,Right,5,1,1.35073354259657,M1,M1119.png,M1186.png,M1119.png,M1186.png,M1125.png,0.3,0.3,0.5,1.35854060086422,2019-03-08-10:42:59,2,M1186.png,1
112_catch_test,112,1214,Right,3,Catch,monocular,congruent,aligned,Right,5,1,2.06554358247377,F1,F1015.png,F1002.png,F1015.png,F1002.png,F1059.png,0.3,0.3,0.5,2.075313429581,2019-03-08-10:43:03,3,F1002.png,1
112_catch_test,112,1214,Right,4,Catch,monocular,incongruent,aligned,Right,5,1,1.20958467372111,M4,M4134.png,M4197.png,M4134.png,M4136.png,M4188.png,0.3,0.3,0.5,1.21696663252078,2019-03-08-10:43:06,4,M4136.png,0
112_catch_test,112,1214,Right,5,Catch,monocular,incongruent,aligned,Right,5,1,0.835885124630295,F3,F3047.png,F3112.png,F3079.png,F3112.png,F3062.png,0.3,0.3,0.5,0.841765465142089,2019-03-08-10:43:09,5,F3112.png,1
112_catch_test,112,1214,Right,6,Catch,monocular,congruent,misaligned,Left,5,0,4.30056462148787,F5,F5033.png,F5076.png,F5033.png,F5076.png,F5068.png,0.3,0.3,0.5,4.30891726937261,2019-03-08-10:43:16,6,F5068.png,0
112_catch_test,112,1214,Right,7,Catch,monocular,congruent,misaligned,Right,5,1,0.834878155757906,M1,M1119.png,M1186.png,M1119.png,M1186.png,M1125.png,0.3,0.3,0.5,0.841827435549931,2019-03-08-10:43:19,7,M1186.png,1
112_catch_test,112,1214,Right,8,Catch,monocular,congruent,misaligned,Left,4,1,1.16040457582858,F1,F1015.png,F1002.png,F1015.png,F1002.png,F1059.png,0.3,0.3,0.5,1.16684116488614,2019-03-08-10:43:22,8,F1002.png,1
112_catch_test,112,1214,Right,9,Catch,monocular,incongruent,misaligned,Left,4,1,1.19043948230683,M4,M4134.png,M4197.png,M4134.png,M4136.png,M4188.png,0.3,0.3,0.5,1.20017614055541,2019-03-08-10:43:25,9,M4136.png,0
112_catch_test,112,1214,Right,10,Catch,monocular,incongruent,misaligned,Left,4,1,1.16957433811331,F3,F3047.png,F3112.png,F3079.png,F3112.png,F3062.png,0.3,0.3,0.5,1.17513809395314,2019-03-08-10:43:29,10,F3112.png,1
112_catch_test,112,1214,Right,11,Catch,monocular,incongruent,aligned,Left,4,1,1.03568454280321,F4,F4064.png,F4018.png,F4064.png,F4040.png,F4020.png,0.3,0.3,0.5,1.04179677048523,2019-03-08-10:43:32,11,F4040.png,0
112_catch_test,112,1214,Right,12,Catch,monocular,congruent,aligned,Left,4,1,1.16584549858817,F5,F5078.png,F5033.png,F5076.png,F5068.png,F5078.png,0.3,0.3,0.5,1.17512880363211,2019-03-08-10:43:35,12,F5068.png,0
112_catch_test,112,1214,Right,13,Catch,monocular,congruent,aligned,Left,4,1,1.01499008097744,F1,F1059.png,F1046.png,F1059.png,F1046.png,F1015.png,0.3,0.3,0.5,1.02523977210512,2019-03-08-10:43:38,13,F1046.png,1
112_catch_test,112,1214,Right,14,Catch,monocular,incongruent,aligned,Right,5,1,1.05598577760975,M2,M2141.png,M2142.png,M2141.png,M2198.png,M2201.png,0.3,0.3,0.5,1.06679454732512,2019-03-08-10:43:41,14,M2198.png,0
112_catch_test,112,1214,Right,15,Catch,monocular,congruent,aligned,Right,5,1,2.3854959820892,F2,F2016.png,F2017.png,F2016.png,F2017.png,F2032.png,0.3,0.3,0.5,2.39188672260207,2019-03-08-10:43:46,15,F2017.png,1
112_catch_test,112,1214,Right,16,Catch,monocular,incongruent,misaligned,Left,4,1,0.930434509078623,F4,F4064.png,F4018.png,F4064.png,F4040.png,F4020.png,0.3,0.3,0.5,0.933440326378332,2019-03-08-10:43:49,16,F4040.png,0
112_catch_test,112,1214,Right,17,Catch,monocular,congruent,misaligned,Left,4,1,0.919963827545871,F5,F5078.png,F5033.png,F5076.png,F5068.png,F5078.png,0.3,0.3,0.5,0.925181022670586,2019-03-08-10:43:52,17,F5068.png,0
112_catch_test,112,1214,Right,18,Catch,monocular,congruent,misaligned,Right,5,1,0.964806789415888,F1,F1059.png,F1046.png,F1059.png,F1046.png,F1015.png,0.3,0.3,0.5,0.975230149459094,2019-03-08-10:43:55,18,F1046.png,1
112_catch_test,112,1214,Right,19,Catch,monocular,incongruent,misaligned,Right,5,1,3.17594347079284,M2,M2141.png,M2142.png,M2141.png,M2198.png,M2201.png,0.3,0.3,0.5,3.18368332201499,2019-03-08-10:44:00,19,M2198.png,0
112_catch_test,112,1214,Right,20,Catch,monocular,congruent,misaligned,Left,4,1,0.670218218569062,F2,F2016.png,F2017.png,F2016.png,F2017.png,F2032.png,0.3,0.3,0.5,0.675163703272119,2019-03-08-10:44:03,20,F2017.png,1
112_CF_CFS_catch_test,112,1215,Left,1,Catch,CFS,incongruent,aligned,Left,5,0,6.89831681075157,M4,M4197.png,M4136.png,M4134.png,M4136.png,M4188.png,0.3,0.3,0.5,6.90076833959029,2019-03-08-11:00:31,6,M4188.png,0
112_CF_CFS_catch_test,112,1215,Left,2,Catch,CFS,congruent,aligned,Left,4,1,5.55501928718877,M1,M1186.png,M1122.png,M1186.png,M1122.png,M1119.png,0.3,0.3,0.5,5.55901324338629,2019-03-08-11:01:02,16,M1122.png,1
112_CF_CFS_catch_test,112,1215,Left,3,Catch,CFS,congruent,aligned,Right,4,0,3.34080767353589,F2,F2017.png,F2032.png,F2017.png,F2032.png,F2016.png,0.3,0.3,0.5,3.35044544945413,2019-03-08-11:01:45,31,F2016.png,0
112_CF_CFS_catch_test,112,1215,Left,4,Catch,CFS,incongruent,aligned,Left,4,1,3.25544075170183,M5,M5152.png,M5178.png,M5152.png,M5154.png,M5146.png,0.3,0.3,0.5,3.25881677893631,2019-03-08-11:01:51,32,M5154.png,0
112_CF_CFS_catch_test,112,1215,Left,5,Catch,CFS,congruent,aligned,Right,4,0,2.95113228812988,M3,M3183.png,M3187.png,M3013.png,M3153.png,M3183.png,0.3,0.3,0.5,2.95877257271786,2019-03-08-11:02:42,45,M3183.png,0
112_CF_CFS_catch_test,112,1215,Left,6,Catch,CFS,incongruent,misaligned,Right,5,1,3.16492647466657,M4,M4197.png,M4136.png,M4134.png,M4136.png,M4188.png,0.3,0.3,0.5,3.17552946522483,2019-03-08-11:05:13,99,M4136.png,1
112_CF_CFS_catch_test,112,1215,Left,7,Catch,CFS,congruent,misaligned,Right,5,1,2.65550733474083,M1,M1186.png,M1122.png,M1186.png,M1122.png,M1119.png,0.3,0.3,0.5,2.65874889570114,2019-03-08-11:07:40,153,M1122.png,1
112_CF_CFS_catch_test,112,1215,Left,8,Catch,CFS,congruent,misaligned,Left,4,1,2.13520669142599,F2,F2017.png,F2032.png,F2017.png,F2032.png,F2016.png,0.3,0.3,0.5,2.14193068930763,2019-03-08-11:08:48,175,F2032.png,1
112_CF_CFS_catch_test,112,1215,Left,9,Catch,CFS,incongruent,misaligned,Left,4,1,1.90579364691803,M5,M5152.png,M5178.png,M5152.png,M5154.png,M5146.png,0.3,0.3,0.5,1.91688249525032,2019-03-08-11:10:47,217,M5154.png,0
112_CF_CFS_catch_test,112,1215,Left,10,Catch,CFS,congruent,misaligned,Right,5,1,3.30498353215808,M3,M3183.png,M3187.png,M3013.png,M3153.png,M3183.png,0.3,0.3,0.5,3.30878964616568,2019-03-08-11:15:42,326,M3153.png,0
112_CF_monocular_catch_test,112,1215,Left,1,Catch,monocular,incongruent,aligned,Left,4,1,2.39071450517804,F2,F2016.png,F2017.png,F2016.png,F2032.png,F2067.png,0.3,0.3,0.5,2.40034338511759,2019-03-08-11:18:39,36,F2032.png,0
112_CF_monocular_catch_test,112,1215,Left,2,Catch,monocular,incongruent,aligned,Right,4,0,1.92561585894146,F1,F1015.png,F1002.png,F1015.png,F1046.png,F1059.png,0.3,0.3,0.5,1.93358666368295,2019-03-08-11:21:01,82,F1059.png,0
112_CF_monocular_catch_test,112,1215,Left,3,Catch,monocular,congruent,aligned,Left,4,1,2.11050527155749,M1,M1125.png,M1122.png,M1125.png,M1122.png,M1186.png,0.3,0.3,0.5,2.11686350748641,2019-03-08-11:22:37,121,M1122.png,1
112_CF_monocular_catch_test,112,1215,Left,4,Catch,monocular,incongruent,aligned,Right,5,1,2.01058759365696,M2,M2141.png,M2201.png,M2198.png,M2201.png,M2142.png,0.3,0.3,0.5,2.01696987700416,2019-03-08-11:23:19,131,M2201.png,1
112_CF_monocular_catch_test,112,1215,Left,5,Catch,monocular,incongruent,aligned,Left,4,1,1.70591302598768,M3,M3183.png,M3153.png,M3183.png,M3187.png,M3013.png,0.3,0.3,0.5,1.71692567080026,2019-03-08-11:25:08,170,M3187.png,0
112_CF_monocular_catch_test,112,1215,Left,6,Catch,monocular,incongruent,misaligned,Right,4,0,1.53494417252659,F2,F2016.png,F2017.png,F2016.png,F2032.png,F2067.png,0.3,0.3,0.5,1.54179579361517,2019-03-08-11:27:28,222,F2067.png,0
112_CF_monocular_catch_test,112,1215,Left,7,Catch,monocular,incongruent,misaligned,Left,4,1,2.01604298605525,F1,F1015.png,F1002.png,F1015.png,F1046.png,F1059.png,0.3,0.3,0.5,2.02518019161653,2019-03-08-11:27:42,227,F1046.png,0
112_CF_monocular_catch_test,112,1215,Left,8,Catch,monocular,congruent,misaligned,Left,4,1,1.71595229656668,M1,M1125.png,M1122.png,M1125.png,M1122.png,M1186.png,0.3,0.3,0.5,1.72515656417818,2019-03-08-11:27:56,232,M1122.png,1
112_CF_monocular_catch_test,112,1215,Left,9,Catch,monocular,incongruent,misaligned,Right,4,0,1.86036105391395,M2,M2141.png,M2201.png,M2198.png,M2201.png,M2142.png,0.3,0.3,0.5,1.86693108278268,2019-03-08-11:29:21,261,M2142.png,0
112_CF_monocular_catch_test,112,1215,Left,10,Catch,monocular,incongruent,misaligned,Right,5,1,1.97090122511145,M3,M3183.png,M3153.png,M3183.png,M3187.png,M3013.png,0.3,0.3,0.5,1.97529119903629,2019-03-08-11:29:38,267,M3187.png,0
112_catch_test,112,1215,Left,1,Catch,monocular,incongruent,aligned,Right,5,1,2.33678360783961,M4,M4188.png,M4134.png,M4197.png,M4134.png,M4136.png,0.3,0.3,0.5,2.34198741833097,2019-03-08-11:33:38,1,M4134.png,1
112_catch_test,112,1215,Left,2,Catch,monocular,congruent,aligned,Left,4,1,1.02477156130772,M1,M1122.png,M1186.png,M1122.png,M1186.png,M1119.png,0.3,0.3,0.5,1.03358166823455,2019-03-08-11:33:41,2,M1186.png,1
112_catch_test,112,1215,Left,3,Catch,monocular,congruent,aligned,Left,4,1,0.790125864528818,F2,F2017.png,F2067.png,F2017.png,F2067.png,F2032.png,0.3,0.3,0.5,0.800099977204809,2019-03-08-11:33:44,3,F2067.png,1
112_catch_test,112,1215,Left,4,Catch,monocular,incongruent,aligned,Right,5,1,2.63040456897579,M5,M5154.png,M5178.png,M5154.png,M5146.png,M5152.png,0.3,0.3,0.5,2.63365228869952,2019-03-08-11:33:48,4,M5146.png,0
112_catch_test,112,1215,Left,5,Catch,monocular,congruent,aligned,Left,4,1,1.08059867257543,M3,M3183.png,M3013.png,M3187.png,M3153.png,M3183.png,0.3,0.3,0.5,1.09181377550703,2019-03-08-11:33:52,5,M3153.png,0
112_catch_test,112,1215,Left,6,Catch,monocular,incongruent,misaligned,Left,4,1,1.00601745118911,M4,M4188.png,M4134.png,M4197.png,M4134.png,M4136.png,0.3,0.3,0.5,1.01673814249807,2019-03-08-11:33:55,6,M4134.png,1
112_catch_test,112,1215,Left,7,Catch,monocular,congruent,misaligned,Right,5,1,1.05054563196609,M1,M1122.png,M1186.png,M1122.png,M1186.png,M1119.png,0.3,0.3,0.5,1.05845587556541,2019-03-08-11:33:58,7,M1186.png,1
112_catch_test,112,1215,Left,8,Catch,monocular,congruent,misaligned,Left,5,0,1.01028170855716,F2,F2017.png,F2067.png,F2017.png,F2067.png,F2032.png,0.3,0.3,0.5,1.01684640803433,2019-03-08-11:34:01,8,F2032.png,0
112_catch_test,112,1215,Left,9,Catch,monocular,incongruent,misaligned,Right,5,1,1.91483186926052,M5,M5154.png,M5178.png,M5154.png,M5146.png,M5152.png,0.3,0.3,0.5,1.92534257147054,2019-03-08-11:34:05,9,M5146.png,0
112_catch_test,112,1215,Left,10,Catch,monocular,congruent,misaligned,Left,5,0,1.36083083048288,M3,M3183.png,M3013.png,M3187.png,M3153.png,M3183.png,0.3,0.3,0.5,1.36686162566184,2019-03-08-11:34:09,10,M3183.png,0
112_catch_test,112,1215,Left,11,Catch,monocular,incongruent,aligned,Right,5,1,1.75519720149168,F2,F2032.png,F2016.png,F2032.png,F2017.png,F2067.png,0.3,0.3,0.5,1.75853285462654,2019-03-08-11:34:12,11,F2017.png,0
112_catch_test,112,1215,Left,12,Catch,monocular,incongruent,aligned,Right,5,1,1.28550953137164,F1,F1015.png,F1002.png,F1015.png,F1046.png,F1059.png,0.3,0.3,0.5,1.29182856473199,2019-03-08-11:34:16,12,F1046.png,0
112_catch_test,112,1215,Left,13,Catch,monocular,congruent,aligned,Right,5,1,0.895688388613053,M1,M1125.png,M1122.png,M1125.png,M1122.png,M1186.png,0.3,0.3,0.5,0.90013740878203,2019-03-08-11:34:19,13,M1122.png,1
112_catch_test,112,1215,Left,14,Catch,monocular,incongruent,aligned,Right,5,1,0.854492097278126,M2,M2142.png,M2198.png,M2141.png,M2198.png,M2201.png,0.3,0.3,0.5,0.858541824491112,2019-03-08-11:34:22,14,M2198.png,1
112_catch_test,112,1215,Left,15,Catch,monocular,incongruent,aligned,Right,4,0,2.03597913685371,M3,M3013.png,M3187.png,M3013.png,M3153.png,M3183.png,0.3,0.3,0.5,2.04191173402069,2019-03-08-11:34:26,15,M3183.png,0
112_catch_test,112,1215,Left,16,Catch,monocular,incongruent,misaligned,Left,4,1,0.690903639362659,F2,F2032.png,F2016.png,F2032.png,F2017.png,F2067.png,0.3,0.3,0.5,0.700092115890584,2019-03-08-11:34:29,16,F2017.png,0
112_catch_test,112,1215,Left,17,Catch,monocular,incongruent,misaligned,Right,5,1,0.590103350841673,F1,F1015.png,F1002.png,F1015.png,F1046.png,F1059.png,0.3,0.3,0.5,0.600091387779685,2019-03-08-11:34:32,17,F1046.png,0
112_catch_test,112,1215,Left,18,Catch,monocular,congruent,misaligned,Left,4,1,0.615196536309668,M1,M1125.png,M1122.png,M1125.png,M1122.png,M1186.png,0.3,0.3,0.5,0.625106458246592,2019-03-08-11:34:34,18,M1122.png,1
112_catch_test,112,1215,Left,19,Catch,monocular,incongruent,misaligned,Left,5,0,0.775317466992419,M2,M2142.png,M2198.png,M2141.png,M2198.png,M2201.png,0.3,0.3,0.5,0.783423173212213,2019-03-08-11:34:37,19,M2201.png,0
112_catch_test,112,1215,Left,20,Catch,monocular,incongruent,misaligned,Left,5,0,0.68520282508689,M3,M3013.png,M3187.png,M3013.png,M3153.png,M3183.png,0.3,0.3,0.5,0.691834783719969,2019-03-08-11:34:40,20,M3183.png,0
112_CF_CFS_catch_test,112,1216,Right,1,Catch,CFS,incongruent,aligned,Right,5,1,2.89057867029624,F3,F3079.png,F3047.png,F3062.png,F3047.png,F3112.png,0.3,0.3,0.5,2.90031875007844,2019-03-08-13:20:35,93,F3047.png,1
112_CF_CFS_catch_test,112,1216,Right,2,Catch,CFS,incongruent,aligned,Left,5,0,4.62103181895509,F2,F2017.png,F2032.png,F2017.png,F2067.png,F2016.png,0.3,0.3,0.5,4.62550855355221,2019-03-08-13:20:59,101,F2016.png,0
112_CF_CFS_catch_test,112,1216,Right,3,Catch,CFS,incongruent,aligned,Right,5,1,2.22571388284268,M1,M1186.png,M1125.png,M1119.png,M1125.png,M1122.png,0.3,0.3,0.5,2.23355706437724,2019-03-08-13:25:16,190,M1125.png,1
112_CF_CFS_catch_test,112,1216,Right,4,Catch,CFS,congruent,aligned,Right,5,1,3.09022070944775,M4,M4136.png,M4188.png,M4197.png,M4134.png,M4136.png,0.3,0.3,0.5,3.10046375467209,2019-03-08-13:26:22,210,M4134.png,0
112_CF_CFS_catch_test,112,1216,Right,5,Catch,CFS,congruent,aligned,Right,5,1,2.41585867149115,F5,F5068.png,F5033.png,F5068.png,F5033.png,F5078.png,0.3,0.3,0.5,2.4253175012127,2019-03-08-13:26:29,212,F5033.png,1
112_CF_CFS_catch_test,112,1216,Right,6,Catch,CFS,incongruent,misaligned,Left,5,0,2.88019363144122,F3,F3079.png,F3047.png,F3062.png,F3047.png,F3112.png,0.3,0.3,0.5,2.88373784872238,2019-03-08-13:28:11,246,F3112.png,0
112_CF_CFS_catch_test,112,1216,Right,7,Catch,CFS,incongruent,misaligned,Left,5,0,3.22592010171502,F2,F2017.png,F2032.png,F2017.png,F2067.png,F2016.png,0.3,0.3,0.5,3.23375712448615,2019-03-08-13:29:36,278,F2016.png,0
112_CF_CFS_catch_test,112,1216,Right,8,Catch,CFS,incongruent,misaligned,Left,5,0,2.69036352424882,M1,M1186.png,M1125.png,M1119.png,M1125.png,M1122.png,0.3,0.3,0.5,2.70034755938104,2019-03-08-13:30:24,292,M1122.png,0
112_CF_CFS_catch_test,112,1216,Right,9,Catch,CFS,congruent,misaligned,Right,4,0,3.77564686752157,M4,M4136.png,M4188.png,M4197.png,M4134.png,M4136.png,0.3,0.3,0.5,3.78375179637806,2019-03-08-13:30:45,299,M4136.png,0
112_CF_CFS_catch_test,112,1216,Right,10,Catch,CFS,congruent,misaligned,Left,4,1,5.10540136985946,F5,F5068.png,F5033.png,F5068.png,F5033.png,F5078.png,0.3,0.3,0.5,5.10898957874451,2019-03-08-13:31:39,318,F5033.png,1
112_CF_monocular_catch_test,112,1216,Right,1,Catch,monocular,incongruent,aligned,Right,5,1,7.34414161590394,F2,F2016.png,F2032.png,F2067.png,F2032.png,F2017.png,0.3,0.3,0.5,7.35090739719453,2019-03-08-13:03:57,110,F2032.png,1
112_CF_monocular_catch_test,112,1216,Right,2,Catch,monocular,congruent,aligned,Right,4,0,3.89154248710838,F4,F4018.png,F4020.png,F4064.png,F4040.png,F4018.png,0.3,0.3,0.5,3.90042205117061,2019-03-08-13:05:29,140,F4018.png,0
112_CF_monocular_catch_test,112,1216,Right,3,Catch,monocular,incongruent,aligned,Right,4,0,3.36088562717487,F5,F5068.png,F5078.png,F5068.png,F5076.png,F5033.png,0.3,0.3,0.5,3.36706481259898,2019-03-08-13:06:48,164,F5033.png,0
112_CF_monocular_catch_test,112,1216,Right,4,Catch,monocular,incongruent,aligned,Right,5,1,3.27000929972564,F1,F1015.png,F1046.png,F1015.png,F1059.png,F1002.png,0.3,0.3,0.5,3.27548359705543,2019-03-08-13:08:55,206,F1059.png,0
112_CF_monocular_catch_test,112,1216,Right,5,Catch,monocular,incongruent,aligned,Left,4,1,2.72585098673881,M1,M1122.png,M1119.png,M1122.png,M1186.png,M1125.png,0.3,0.3,0.5,2.73375119209231,2019-03-08-13:10:03,231,M1186.png,0
112_CF_monocular_catch_test,112,1216,Right,6,Catch,monocular,incongruent,misaligned,Right,5,1,3.34078220919764,F2,F2016.png,F2032.png,F2067.png,F2032.png,F2017.png,0.3,0.3,0.5,3.35036866211158,2019-03-08-13:11:09,251,F2032.png,1
112_CF_monocular_catch_test,112,1216,Right,7,Catch,monocular,congruent,misaligned,Left,4,1,3.01466811465798,F4,F4018.png,F4020.png,F4064.png,F4040.png,F4018.png,0.3,0.3,0.5,3.0254370495968,2019-03-08-13:12:04,271,F4040.png,0
112_CF_monocular_catch_test,112,1216,Right,8,Catch,monocular,incongruent,misaligned,Left,5,0,3.90057639154838,F5,F5068.png,F5078.png,F5068.png,F5076.png,F5033.png,0.3,0.3,0.5,3.90894169911917,2019-03-08-13:12:46,286,F5033.png,0
112_CF_monocular_catch_test,112,1216,Right,9,Catch,monocular,incongruent,misaligned,Left,4,1,2.56080338977335,F1,F1015.png,F1046.png,F1015.png,F1059.png,F1002.png,0.3,0.3,0.5,2.56701655269717,2019-03-08-13:13:50,304,F1059.png,0
112_CF_monocular_catch_test,112,1216,Right,10,Catch,monocular,incongruent,misaligned,Left,4,1,2.58026302013604,M1,M1122.png,M1119.png,M1122.png,M1186.png,M1125.png,0.3,0.3,0.5,2.58366368240968,2019-03-08-13:14:49,326,M1186.png,0
112_catch_test,112,1216,Right,1,Catch,monocular,incongruent,aligned,Left,4,1,1.0551575171412,F3,F3112.png,F3062.png,F3079.png,F3062.png,F3047.png,0.3,0.3,0.5,1.05851198871096,2019-03-08-13:33:25,1,F3062.png,1
