Name,Experiment,Participant,Trial,SubTrial,Condition,Congruency,Alignment,SameDifferent,FaceGroup,StudyUpper,StudyLower,TargetUpper,TargetLower,thisResponse,isCorrect,reactionTime,studyDuration,targetDuration,maskDuration,trialEndTime
603,104_CF_CFS,603,1,,Complete,I,M,D,M3,M3183.png,M3187.png,M3153.png,M3187.png,D,1,0.165443077,0.3,0.3,0.5,2017-04-03-10:07:07
603,104_CF_CFS,603,2,,Complete,C,A,D,F3,F3047.png,F3062.png,F3079.png,F3112.png,D,1,0.230990339,0.3,0.3,0.5,2017-04-03-10:07:10
603,104_CF_CFS,603,3,,Complete,C,M,D,M1,M1122.png,M1119.png,M1186.png,M1125.png,D,1,0.361435311,0.3,0.3,0.5,2017-04-03-10:07:12
603,104_CF_CFS,603,4,,Complete,C,A,S,F4,F4020.png,F4018.png,F4020.png,F4018.png,S,1,0.301100529,0.3,0.3,0.5,2017-04-03-10:07:15
603,104_CF_CFS,603,5,,Complete,I,A,S,F4,F4020.png,F4018.png,F4020.png,F4040.png,S,1,0.175828733,0.3,0.3,0.5,2017-04-03-10:07:17
603,104_CF_CFS,603,6,,Complete,C,M,D,M4,M4134.png,M4188.png,M4136.png,M4197.png,D,1,0.430582153,0.3,0.3,0.5,2017-04-03-10:07:20
603,104_CF_CFS,603,7,,Complete,I,M,S,F1,F1059.png,F1002.png,F1059.png,F1015.png,S,1,0.141455032,0.3,0.3,0.5,2017-04-03-10:07:22
603,104_CF_CFS,603,8,,Complete,C,A,S,F1,F1002.png,F1015.png,F1002.png,F1015.png,D,0,0.411570739,0.3,0.3,0.5,2017-04-03-10:07:25
603,104_CF_CFS,603,9,,Complete,I,A,S,F4,F4018.png,F4040.png,F4018.png,F4064.png,S,1,0.196049844,0.3,0.3,0.5,2017-04-03-10:07:27
603,104_CF_CFS,603,10,,Complete,I,A,S,F2,F2017.png,F2016.png,F2017.png,F2032.png,S,1,0.225365375,0.3,0.3,0.5,2017-04-03-10:07:30
603,104_CF_CFS,603,11,,Complete,C,M,S,F1,F1002.png,F1015.png,F1002.png,F1015.png,S,1,0.296118124,0.3,0.3,0.5,2017-04-03-10:07:32
603,104_CF_CFS,603,12,,Complete,C,A,D,M1,M1122.png,M1119.png,M1186.png,M1125.png,D,1,0.216196066,0.3,0.3,0.5,2017-04-03-10:07:35
603,104_CF_CFS,603,13,,Complete,I,M,S,F3,F3047.png,F3062.png,F3047.png,F3079.png,S,1,0.146396208,0.3,0.3,0.5,2017-04-03-10:07:37
603,104_CF_CFS,603,14,,Complete,I,M,S,F2,F2017.png,F2016.png,F2017.png,F2032.png,S,1,0.335531882,0.3,0.3,0.5,2017-04-03-10:07:39
603,104_CF_CFS,603,15,,Complete,I,M,S,F5,F5078.png,F5068.png,F5078.png,F5076.png,S,1,0.195993389,0.3,0.3,0.5,2017-04-03-10:07:42
603,104_CF_CFS,603,16,,Complete,I,M,D,F2,F2016.png,F2032.png,F2017.png,F2032.png,D,1,0.256179164,0.3,0.3,0.5,2017-04-03-10:07:44
603,104_CF_CFS,603,17,,Complete,I,A,D,M4,M4134.png,M4188.png,M4197.png,M4188.png,D,1,0.150849989,0.3,0.3,0.5,2017-04-03-10:07:47
603,104_CF_CFS,603,18,,Complete,I,M,S,M3,M3187.png,M3013.png,M3187.png,M3153.png,S,1,0.15054479,0.3,0.3,0.5,2017-04-03-10:07:49
603,104_CF_CFS,603,19,,Complete,I,M,D,M1,M1122.png,M1119.png,M1125.png,M1119.png,D,1,0.081344958,0.3,0.3,0.5,2017-04-03-10:07:51
603,104_CF_CFS,603,20,,Complete,I,A,S,M3,M3183.png,M3187.png,M3183.png,M3013.png,S,1,0.29087021,0.3,0.3,0.5,2017-04-03-10:07:54
603,104_CF_CFS,603,21,,Complete,I,M,D,M5,M5152.png,M5154.png,M5146.png,M5154.png,D,1,0.421070009,0.3,0.3,0.5,2017-04-03-10:07:57
603,104_CF_CFS,603,22,,Complete,I,A,D,F1,F1046.png,F1059.png,F1015.png,F1059.png,D,1,0.181177475,0.3,0.3,0.5,2017-04-03-10:07:59
603,104_CF_CFS,603,23,,Complete,I,A,D,M1,M1122.png,M1119.png,M1125.png,M1119.png,D,1,0.210668658,0.3,0.3,0.5,2017-04-03-10:08:01
603,104_CF_CFS,603,24,,Complete,I,A,D,F2,F2032.png,F2067.png,F2016.png,F2067.png,D,1,0.401171868,0.3,0.3,0.5,2017-04-03-10:08:04
603,104_CF_CFS,603,25,,Complete,I,M,D,M3,M3153.png,M3183.png,M3013.png,M3183.png,S,0,0.465979399,0.3,0.3,0.5,2017-04-03-10:08:07
603,104_CF_CFS,603,26,,Complete,I,A,S,M3,M3187.png,M3013.png,M3187.png,M3153.png,S,1,0.266122418,0.3,0.3,0.5,2017-04-03-10:08:09
603,104_CF_CFS,603,27,,Complete,C,A,S,F1,F1015.png,F1046.png,F1015.png,F1046.png,S,1,0.151220539,0.3,0.3,0.5,2017-04-03-10:08:12
603,104_CF_CFS,603,28,,Complete,C,A,S,F5,F5033.png,F5078.png,F5033.png,F5078.png,S,1,0.011111786,0.3,0.3,0.5,2017-04-03-10:08:14
603,104_CF_CFS,603,29,,Complete,I,M,D,M4,M4197.png,M4134.png,M4136.png,M4134.png,S,0,0.320658573,0.3,0.3,0.5,2017-04-03-10:08:16
603,104_CF_CFS,603,30,,Complete,I,A,D,F4,F4020.png,F4018.png,F4064.png,F4018.png,S,0,0.295762287,0.3,0.3,0.5,2017-04-03-10:08:19
603,104_CF_CFS,603,31,,Complete,C,M,D,F2,F2016.png,F2032.png,F2067.png,F2017.png,S,0,0.14100459,0.3,0.3,0.5,2017-04-03-10:08:21
603,104_CF_CFS,603,32,,Complete,C,A,D,F3,F3062.png,F3079.png,F3112.png,F3047.png,D,1,0.101110452,0.3,0.3,0.5,2017-04-03-10:08:24
603,104_CF_CFS,603,33,,Complete,I,A,S,M5,M5146.png,M5152.png,M5146.png,M5154.png,S,1,0.151013367,0.3,0.3,0.5,2017-04-03-10:08:26
603,104_CF_CFS,603,34,,Complete,C,A,S,M3,M3153.png,M3183.png,M3153.png,M3183.png,S,1,0.150958451,0.3,0.3,0.5,2017-04-03-10:08:28
603,104_CF_CFS,603,35,,Complete,C,M,S,F2,F2032.png,F2067.png,F2032.png,F2067.png,S,1,0.130717474,0.3,0.3,0.5,2017-04-03-10:08:31
603,104_CF_CFS,603,36,,Complete,I,M,D,M2,M2141.png,M2201.png,M2198.png,M2201.png,D,1,0.15646424,0.3,0.3,0.5,2017-04-03-10:08:33
603,104_CF_CFS,603,37,,Complete,I,A,D,M3,M3153.png,M3183.png,M3013.png,M3183.png,S,0,0.8109946,0.3,0.3,0.5,2017-04-03-10:08:36
603,104_CF_CFS,603,38,,Complete,C,M,D,M2,M2142.png,M2198.png,M2141.png,M2201.png,D,1,0.175439023,0.3,0.3,0.5,2017-04-03-10:08:39
603,104_CF_CFS,603,39,,Complete,C,M,D,M1,M1119.png,M1186.png,M1125.png,M1122.png,D,1,0.091381726,0.3,0.3,0.5,2017-04-03-10:08:41
603,104_CF_CFS,603,40,,Complete,I,M,S,M1,M1122.png,M1119.png,M1122.png,M1186.png,S,1,0.365436576,0.3,0.3,0.5,2017-04-03-10:08:43
603,104_CF_CFS,603,41,,Complete,C,M,S,F2,F2017.png,F2016.png,F2017.png,F2016.png,S,1,0.108650094,0.3,0.3,0.5,2017-04-03-10:09:00
603,104_CF_CFS,603,42,,Complete,C,M,D,F2,F2017.png,F2016.png,F2032.png,F2067.png,D,1,0.485781738,0.3,0.3,0.5,2017-04-03-10:09:02
603,104_CF_CFS,603,43,,Complete,C,A,S,M3,M3187.png,M3013.png,M3187.png,M3013.png,S,1,0.201245088,0.3,0.3,0.5,2017-04-03-10:09:05
603,104_CF_CFS,603,44,,Complete,I,A,S,M1,M1186.png,M1125.png,M1186.png,M1122.png,S,1,0.051078717,0.3,0.3,0.5,2017-04-03-10:09:07
603,104_CF_CFS,603,45,,Complete,C,A,D,M4,M4188.png,M4136.png,M4197.png,M4134.png,S,0,0.076903943,0.3,0.3,0.5,2017-04-03-10:09:09
603,104_CF_CFS,603,46,,Complete,C,M,D,M2,M2141.png,M2201.png,M2142.png,M2198.png,D,1,0.355685269,0.3,0.3,0.5,2017-04-03-10:09:12
603,104_CF_CFS,603,47,,Complete,I,A,D,M5,M5154.png,M5178.png,M5152.png,M5178.png,S,0,0.250580716,0.3,0.3,0.5,2017-04-03-10:09:14
603,104_CF_CFS,603,48,,Complete,C,A,S,M5,M5178.png,M5146.png,M5178.png,M5146.png,S,1,0.105413686,0.3,0.3,0.5,2017-04-03-10:09:17
603,104_CF_CFS,603,49,,Complete,C,A,S,F5,F5068.png,F5076.png,F5068.png,F5076.png,S,1,0.000729466,0.3,0.3,0.5,2017-04-03-10:09:19
603,104_CF_CFS,603,50,,Complete,C,A,D,M4,M4197.png,M4134.png,M4188.png,M4136.png,S,0,0.216103343,0.3,0.3,0.5,2017-04-03-10:09:21
603,104_CF_CFS,603,51,,Complete,C,M,D,M1,M1186.png,M1125.png,M1122.png,M1119.png,D,1,0.221300619,0.3,0.3,0.5,2017-04-03-10:09:24
603,104_CF_CFS,603,52,,Complete,C,A,D,M5,M5152.png,M5154.png,M5178.png,M5146.png,D,1,0.260496427,0.3,0.3,0.5,2017-04-03-10:09:26
603,104_CF_CFS,603,53,,Complete,I,A,D,M3,M3013.png,M3153.png,M3187.png,M3153.png,D,1,0.335917679,0.3,0.3,0.5,2017-04-03-10:09:29
603,104_CF_CFS,603,54,,Complete,I,A,D,F4,F4040.png,F4064.png,F4018.png,F4064.png,D,1,0.091471434,0.3,0.3,0.5,2017-04-03-10:09:31
603,104_CF_CFS,603,55,,Complete,C,M,D,F4,F4040.png,F4064.png,F4020.png,F4018.png,D,1,0.070588859,0.3,0.3,0.5,2017-04-03-10:09:34
603,104_CF_CFS,603,56,,Complete,I,M,D,M4,M4134.png,M4188.png,M4197.png,M4188.png,D,1,0.185820573,0.3,0.3,0.5,2017-04-03-10:09:36
603,104_CF_CFS,603,57,,Complete,C,M,S,M4,M4188.png,M4136.png,M4188.png,M4136.png,S,1,0.136292827,0.3,0.3,0.5,2017-04-03-10:09:38
603,104_CF_CFS,603,58,,Complete,C,M,D,M5,M5154.png,M5178.png,M5146.png,M5152.png,D,1,0.0607243,0.3,0.3,0.5,2017-04-03-10:09:41
603,104_CF_CFS,603,59,,Complete,I,A,D,M3,M3183.png,M3187.png,M3153.png,M3187.png,D,1,0.056247039,0.3,0.3,0.5,2017-04-03-10:09:43
603,104_CF_CFS,603,60,,Complete,C,M,D,F3,F3079.png,F3112.png,F3047.png,F3062.png,S,0,0.170766543,0.3,0.3,0.5,2017-04-03-10:09:45
603,104_CF_CFS,603,61,,Complete,I,M,D,F5,F5033.png,F5078.png,F5076.png,F5078.png,D,1,0.040931007,0.3,0.3,0.5,2017-04-03-10:09:48
603,104_CF_CFS,603,62,,Complete,I,M,D,F4,F4040.png,F4064.png,F4018.png,F4064.png,D,1,0.146119749,0.3,0.3,0.5,2017-04-03-10:09:50
603,104_CF_CFS,603,63,,Complete,C,A,S,F4,F4040.png,F4064.png,F4040.png,F4064.png,S,1,0.000830187,0.3,0.3,0.5,2017-04-03-10:09:52
603,104_CF_CFS,603,64,,Complete,C,M,S,M2,M2141.png,M2201.png,M2141.png,M2201.png,S,1,0.000576183,0.3,0.3,0.5,2017-04-03-10:09:54
603,104_CF_CFS,603,65,,Complete,C,A,S,F5,F5078.png,F5068.png,F5078.png,F5068.png,S,1,0.240978608,0.3,0.3,0.5,2017-04-03-10:09:57
603,104_CF_CFS,603,66,,Complete,I,A,D,F3,F3079.png,F3112.png,F3062.png,F3112.png,D,1,0.036119164,0.3,0.3,0.5,2017-04-03-10:09:59
603,104_CF_CFS,603,67,,Complete,C,A,D,F5,F5068.png,F5076.png,F5033.png,F5078.png,D,1,0.30577842,0.3,0.3,0.5,2017-04-03-10:10:02
603,104_CF_CFS,603,68,,Complete,I,M,D,F4,F4018.png,F4040.png,F4020.png,F4040.png,S,0,0.081464433,0.3,0.3,0.5,2017-04-03-10:10:04
603,104_CF_CFS,603,69,,Complete,C,M,S,M5,M5152.png,M5154.png,M5152.png,M5154.png,S,1,0.241033502,0.3,0.3,0.5,2017-04-03-10:10:06
603,104_CF_CFS,603,70,,Complete,I,A,D,M1,M1186.png,M1125.png,M1119.png,M1125.png,D,1,0.066115233,0.3,0.3,0.5,2017-04-03-10:10:09
603,104_CF_CFS,603,71,,Complete,I,M,D,F1,F1002.png,F1015.png,F1059.png,F1015.png,D,1,0.201305542,0.3,0.3,0.5,2017-04-03-10:10:11
603,104_CF_CFS,603,72,,Complete,I,M,S,F1,F1046.png,F1059.png,F1046.png,F1002.png,S,1,0.256163425,0.3,0.3,0.5,2017-04-03-10:10:14
603,104_CF_CFS,603,73,,Complete,I,M,S,F5,F5033.png,F5078.png,F5033.png,F5068.png,S,1,0.205748139,0.3,0.3,0.5,2017-04-03-10:10:16
603,104_CF_CFS,603,74,,Complete,C,A,S,M4,M4188.png,M4136.png,M4188.png,M4136.png,S,1,0.180527837,0.3,0.3,0.5,2017-04-03-10:10:18
603,104_CF_CFS,603,75,,Complete,C,M,D,F4,F4064.png,F4020.png,F4018.png,F4040.png,S,0,0.016408778,0.3,0.3,0.5,2017-04-03-10:10:21
603,104_CF_CFS,603,76,,Complete,C,M,D,F4,F4020.png,F4018.png,F4040.png,F4064.png,D,1,0.13526601,0.3,0.3,0.5,2017-04-03-10:10:23
603,104_CF_CFS,603,77,,Complete,C,A,S,M1,M1122.png,M1119.png,M1122.png,M1119.png,S,1,0.1709914,0.3,0.3,0.5,2017-04-03-10:10:25
603,104_CF_CFS,603,78,,Complete,I,A,D,F3,F3112.png,F3047.png,F3079.png,F3047.png,D,1,0.351085966,0.3,0.3,0.5,2017-04-03-10:10:28
603,104_CF_CFS,603,79,,Complete,I,A,D,F1,F1015.png,F1046.png,F1002.png,F1046.png,S,0,0.295934047,0.3,0.3,0.5,2017-04-03-10:10:31
603,104_CF_CFS,603,80,,Complete,C,A,D,M1,M1125.png,M1122.png,M1119.png,M1186.png,D,1,0.076061225,0.3,0.3,0.5,2017-04-03-10:10:33
603,104_CF_CFS,603,81,,Complete,C,M,D,F1,F1059.png,F1002.png,F1015.png,F1046.png,D,1,0.005388538,0.3,0.3,0.5,2017-04-03-10:10:48
603,104_CF_CFS,603,82,,Complete,I,A,S,F1,F1015.png,F1046.png,F1015.png,F1059.png,S,1,0.16128902,0.3,0.3,0.5,2017-04-03-10:10:51
603,104_CF_CFS,603,83,,Complete,C,A,D,F1,F1046.png,F1059.png,F1002.png,F1015.png,D,1,0.275837116,0.3,0.3,0.5,2017-04-03-10:10:53
603,104_CF_CFS,603,84,,Complete,C,A,S,F3,F3062.png,F3079.png,F3062.png,F3079.png,S,1,0.095568972,0.3,0.3,0.5,2017-04-03-10:10:56
603,104_CF_CFS,603,85,,Complete,I,A,D,M4,M4136.png,M4197.png,M4188.png,M4197.png,D,1,0.095729783,0.3,0.3,0.5,2017-04-03-10:10:58
603,104_CF_CFS,603,86,,Complete,I,M,S,F4,F4064.png,F4020.png,F4064.png,F4018.png,S,1,0.140882784,0.3,0.3,0.5,2017-04-03-10:11:00
603,104_CF_CFS,603,87,,Complete,C,M,S,F2,F2067.png,F2017.png,F2067.png,F2017.png,S,1,0.056118603,0.3,0.3,0.5,2017-04-03-10:11:02
603,104_CF_CFS,603,88,,Complete,I,M,D,F5,F5068.png,F5076.png,F5078.png,F5076.png,D,1,0.250670189,0.3,0.3,0.5,2017-04-03-10:11:05
603,104_CF_CFS,603,89,,Complete,I,M,S,M1,M1186.png,M1125.png,M1186.png,M1122.png,S,1,0.096443532,0.3,0.3,0.5,2017-04-03-10:11:07
603,104_CF_CFS,603,90,,Complete,I,A,D,F4,F4064.png,F4020.png,F4040.png,F4020.png,D,1,0.265572966,0.3,0.3,0.5,2017-04-03-10:11:10
603,104_CF_CFS,603,91,,Complete,C,A,D,M5,M5146.png,M5152.png,M5154.png,M5178.png,D,1,0.180775554,0.3,0.3,0.5,2017-04-03-10:11:12
603,104_CF_CFS,603,92,,Complete,I,M,S,M4,M4136.png,M4197.png,M4136.png,M4134.png,S,1,0.021264351,0.3,0.3,0.5,2017-04-03-10:11:14
603,104_CF_CFS,603,93,,Complete,C,M,D,M3,M3013.png,M3153.png,M3183.png,M3187.png,D,1,0.170417805,0.3,0.3,0.5,2017-04-03-10:11:17
603,104_CF_CFS,603,94,,Complete,I,A,D,F5,F5068.png,F5076.png,F5078.png,F5076.png,D,1,0.12557073,0.3,0.3,0.5,2017-04-03-10:11:19
603,104_CF_CFS,603,95,,Complete,I,M,D,M1,M1125.png,M1122.png,M1186.png,M1122.png,S,0,0.245417763,0.3,0.3,0.5,2017-04-03-10:11:22
603,104_CF_CFS,603,96,,Complete,C,M,S,F1,F1059.png,F1002.png,F1059.png,F1002.png,S,1,0.080598491,0.3,0.3,0.5,2017-04-03-10:11:24
603,104_CF_CFS,603,97,,Complete,I,A,S,M3,M3153.png,M3183.png,M3153.png,M3187.png,S,1,0.021409744,0.3,0.3,0.5,2017-04-03-10:11:26
603,104_CF_CFS,603,98,,Complete,I,M,D,M3,M3013.png,M3153.png,M3187.png,M3153.png,D,1,0.115594051,0.3,0.3,0.5,2017-04-03-10:11:29
603,104_CF_CFS,603,99,,Complete,C,A,D,F5,F5076.png,F5033.png,F5078.png,F5068.png,D,1,0.135772757,0.3,0.3,0.5,2017-04-03-10:11:31
603,104_CF_CFS,603,100,,Complete,C,M,S,F5,F5068.png,F5076.png,F5068.png,F5076.png,S,1,0.071301218,0.3,0.3,0.5,2017-04-03-10:11:33
603,104_CF_CFS,603,101,,Complete,I,M,S,M3,M3183.png,M3187.png,M3183.png,M3013.png,S,1,0.061444678,0.3,0.3,0.5,2017-04-03-10:11:35
603,104_CF_CFS,603,102,,Complete,C,A,S,F2,F2067.png,F2017.png,F2067.png,F2017.png,S,1,0.000581999,0.3,0.3,0.5,2017-04-03-10:11:38
603,104_CF_CFS,603,103,,Complete,I,A,D,M2,M2141.png,M2201.png,M2198.png,M2201.png,D,1,0.070794727,0.3,0.3,0.5,2017-04-03-10:11:40
603,104_CF_CFS,603,104,,Complete,C,A,D,F1,F1002.png,F1015.png,F1046.png,F1059.png,D,1,0.060923432,0.3,0.3,0.5,2017-04-03-10:11:42
603,104_CF_CFS,603,105,,Complete,C,M,D,F5,F5068.png,F5076.png,F5033.png,F5078.png,D,1,0.145477511,0.3,0.3,0.5,2017-04-03-10:11:45
603,104_CF_CFS,603,106,,Complete,I,A,D,M4,M4188.png,M4136.png,M4134.png,M4136.png,D,1,0.080731588,0.3,0.3,0.5,2017-04-03-10:11:47
603,104_CF_CFS,603,107,,Complete,I,A,D,F1,F1002.png,F1015.png,F1059.png,F1015.png,D,1,0.121158691,0.3,0.3,0.5,2017-04-03-10:11:49
603,104_CF_CFS,603,108,,Complete,C,A,S,F3,F3079.png,F3112.png,F3079.png,F3112.png,S,1,0.190394791,0.3,0.3,0.5,2017-04-03-10:11:52
603,104_CF_CFS,603,109,,Complete,I,M,S,M3,M3013.png,M3153.png,M3013.png,M3183.png,D,0,0.195512688,0.3,0.3,0.5,2017-04-03-10:11:54
603,104_CF_CFS,603,110,,Complete,I,A,S,F5,F5068.png,F5076.png,F5068.png,F5033.png,S,1,0.090654634,0.3,0.3,0.5,2017-04-03-10:11:56
603,104_CF_CFS,603,111,,Complete,I,A,D,M1,M1119.png,M1186.png,M1122.png,M1186.png,D,1,0.06085637,0.3,0.3,0.5,2017-04-03-10:11:59
603,104_CF_CFS,603,112,,Complete,I,M,S,F4,F4018.png,F4040.png,F4018.png,F4064.png,S,1,0.141444938,0.3,0.3,0.5,2017-04-03-10:12:01
603,104_CF_CFS,603,113,,Complete,C,M,D,M5,M5146.png,M5152.png,M5154.png,M5178.png,D,1,0.085551471,0.3,0.3,0.5,2017-04-03-10:12:03
603,104_CF_CFS,603,114,,Complete,I,A,S,M1,M1122.png,M1119.png,M1122.png,M1186.png,S,1,0.336077956,0.3,0.3,0.5,2017-04-03-10:12:06
603,104_CF_CFS,603,115,,Complete,C,A,S,M4,M4197.png,M4134.png,M4197.png,M4134.png,S,1,0.090502398,0.3,0.3,0.5,2017-04-03-10:12:08
603,104_CF_CFS,603,116,,Complete,C,M,S,F1,F1046.png,F1059.png,F1046.png,F1059.png,S,1,0.060693506,0.3,0.3,0.5,2017-04-03-10:12:11
603,104_CF_CFS,603,117,,Complete,I,A,S,M1,M1125.png,M1122.png,M1125.png,M1119.png,S,1,0.121245362,0.3,0.3,0.5,2017-04-03-10:12:13
603,104_CF_CFS,603,118,,Complete,C,A,D,F5,F5033.png,F5078.png,F5068.png,F5076.png,D,1,0.140396245,0.3,0.3,0.5,2017-04-03-10:12:15
603,104_CF_CFS,603,119,,Complete,C,M,D,F2,F2067.png,F2017.png,F2016.png,F2032.png,S,0,0.145588731,0.3,0.3,0.5,2017-04-03-10:12:18
603,104_CF_CFS,603,120,,Complete,I,M,D,M2,M2198.png,M2141.png,M2142.png,M2141.png,D,1,0.220694327,0.3,0.3,0.5,2017-04-03-10:12:20
603,104_CF_CFS,603,121,,Complete,C,M,S,M2,M2201.png,M2142.png,M2201.png,M2142.png,S,1,0.035457465,0.3,0.3,0.5,2017-04-03-10:12:34
603,104_CF_CFS,603,122,,Complete,I,M,S,F3,F3112.png,F3047.png,F3112.png,F3062.png,S,1,0.090954721,0.3,0.3,0.5,2017-04-03-10:12:36
603,104_CF_CFS,603,123,,Complete,C,M,S,M5,M5178.png,M5146.png,M5178.png,M5146.png,S,1,0.111116662,0.3,0.3,0.5,2017-04-03-10:12:38
603,104_CF_CFS,603,124,,Complete,I,A,S,M3,M3013.png,M3153.png,M3013.png,M3183.png,S,1,0.005675945,0.3,0.3,0.5,2017-04-03-10:12:41
603,104_CF_CFS,603,125,,Complete,I,M,S,M2,M2142.png,M2198.png,M2142.png,M2141.png,S,1,0.055454488,0.3,0.3,0.5,2017-04-03-10:12:43
603,104_CF_CFS,603,126,,Complete,I,M,S,M5,M5146.png,M5152.png,M5146.png,M5154.png,S,1,0.000618652,0.3,0.3,0.5,2017-04-03-10:12:45
603,104_CF_CFS,603,127,,Complete,I,A,D,F5,F5033.png,F5078.png,F5076.png,F5078.png,D,1,0.066166556,0.3,0.3,0.5,2017-04-03-10:12:47
603,104_CF_CFS,603,128,,Complete,I,M,D,M1,M1119.png,M1186.png,M1122.png,M1186.png,D,1,0.141396011,0.3,0.3,0.5,2017-04-03-10:12:50
603,104_CF_CFS,603,129,,Complete,I,A,D,M2,M2142.png,M2198.png,M2201.png,M2198.png,S,0,0.230509959,0.3,0.3,0.5,2017-04-03-10:12:52
603,104_CF_CFS,603,130,,Complete,C,M,D,F5,F5078.png,F5068.png,F5076.png,F5033.png,D,1,0.07628157,0.3,0.3,0.5,2017-04-03-10:12:55
603,104_CF_CFS,603,131,,Complete,I,A,S,M1,M1119.png,M1186.png,M1119.png,M1125.png,S,1,0.031178865,0.3,0.3,0.5,2017-04-03-10:12:57
603,104_CF_CFS,603,132,,Complete,C,A,D,M4,M4136.png,M4197.png,M4134.png,M4188.png,D,1,0.195700529,0.3,0.3,0.5,2017-04-03-10:12:59
603,104_CF_CFS,603,133,,Complete,I,M,D,F1,F1046.png,F1059.png,F1015.png,F1059.png,D,1,0.34082325,0.3,0.3,0.5,2017-04-03-10:13:02
603,104_CF_CFS,603,134,,Complete,C,M,D,M4,M4136.png,M4197.png,M4134.png,M4188.png,D,1,0.111016753,0.3,0.3,0.5,2017-04-03-10:13:04
603,104_CF_CFS,603,135,,Complete,I,M,D,F3,F3047.png,F3062.png,F3112.png,F3062.png,D,1,0.285542233,0.3,0.3,0.5,2017-04-03-10:13:07
603,104_CF_CFS,603,136,,Complete,C,A,D,M3,M3013.png,M3153.png,M3183.png,M3187.png,D,1,0.196005043,0.3,0.3,0.5,2017-04-03-10:13:09
603,104_CF_CFS,603,137,,Complete,I,M,D,M5,M5154.png,M5178.png,M5152.png,M5178.png,S,0,0.171164529,0.3,0.3,0.5,2017-04-03-10:13:12
603,104_CF_CFS,603,138,,Complete,I,M,D,F3,F3112.png,F3047.png,F3079.png,F3047.png,D,1,0.13634107,0.3,0.3,0.5,2017-04-03-10:13:14
603,104_CF_CFS,603,139,,Complete,I,M,D,M4,M4136.png,M4197.png,M4188.png,M4197.png,D,1,0.145856977,0.3,0.3,0.5,2017-04-03-10:13:16
603,104_CF_CFS,603,140,,Complete,I,A,D,F3,F3062.png,F3079.png,F3047.png,F3079.png,S,0,0.186007387,0.3,0.3,0.5,2017-04-03-10:13:19
603,104_CF_CFS,603,141,,Complete,I,A,D,M2,M2201.png,M2142.png,M2141.png,M2142.png,D,1,0.125505486,0.3,0.3,0.5,2017-04-03-10:13:21
603,104_CF_CFS,603,142,,Complete,I,M,D,F3,F3062.png,F3079.png,F3047.png,F3079.png,S,0,0.171252504,0.3,0.3,0.5,2017-04-03-10:13:23
603,104_CF_CFS,603,143,,Complete,I,A,D,M3,M3187.png,M3013.png,M3183.png,M3013.png,D,1,0.485426607,0.3,0.3,0.5,2017-04-03-10:13:26
603,104_CF_CFS,603,144,,Complete,I,A,S,M4,M4197.png,M4134.png,M4197.png,M4188.png,S,1,0.090956774,0.3,0.3,0.5,2017-04-03-10:13:28
603,104_CF_CFS,603,145,,Complete,C,A,S,F4,F4018.png,F4040.png,F4018.png,F4040.png,S,1,0.156109194,0.3,0.3,0.5,2017-04-03-10:13:31
603,104_CF_CFS,603,146,,Complete,C,A,D,M2,M2141.png,M2201.png,M2142.png,M2198.png,D,1,0.045694627,0.3,0.3,0.5,2017-04-03-10:13:33
603,104_CF_CFS,603,147,,Complete,I,A,D,F2,F2017.png,F2016.png,F2067.png,F2016.png,D,1,0.185862315,0.3,0.3,0.5,2017-04-03-10:13:35
603,104_CF_CFS,603,148,,Complete,C,M,S,F4,F4020.png,F4018.png,F4020.png,F4018.png,S,1,0.006371881,0.3,0.3,0.5,2017-04-03-10:13:38
603,104_CF_CFS,603,149,,Complete,I,A,S,F2,F2067.png,F2017.png,F2067.png,F2016.png,S,1,0.135800364,0.3,0.3,0.5,2017-04-03-10:13:40
603,104_CF_CFS,603,150,,Complete,I,M,D,F5,F5076.png,F5033.png,F5068.png,F5033.png,D,1,0.025348951,0.3,0.3,0.5,2017-04-03-10:13:42
603,104_CF_CFS,603,151,,Complete,C,M,S,M4,M4136.png,M4197.png,M4136.png,M4197.png,S,1,0.031125147,0.3,0.3,0.5,2017-04-03-10:13:45
603,104_CF_CFS,603,152,,Complete,C,A,D,F4,F4040.png,F4064.png,F4020.png,F4018.png,S,0,0.425920344,0.3,0.3,0.5,2017-04-03-10:13:47
603,104_CF_CFS,603,153,,Complete,C,A,S,M4,M4136.png,M4197.png,M4136.png,M4197.png,S,1,0.145550068,0.3,0.3,0.5,2017-04-03-10:13:50
603,104_CF_CFS,603,154,,Complete,I,A,S,M2,M2198.png,M2141.png,M2198.png,M2201.png,S,1,0.000656717,0.3,0.3,0.5,2017-04-03-10:13:52
603,104_CF_CFS,603,155,,Complete,C,M,D,M4,M4197.png,M4134.png,M4188.png,M4136.png,D,1,0.06558661,0.3,0.3,0.5,2017-04-03-10:13:54
603,104_CF_CFS,603,156,,Complete,C,A,D,F4,F4064.png,F4020.png,F4018.png,F4040.png,D,1,0.475820692,0.3,0.3,0.5,2017-04-03-10:13:57
603,104_CF_CFS,603,157,,Complete,C,A,D,F1,F1059.png,F1002.png,F1015.png,F1046.png,D,1,0.135418288,0.3,0.3,0.5,2017-04-03-10:13:59
603,104_CF_CFS,603,158,,Complete,I,M,S,F1,F1015.png,F1046.png,F1015.png,F1059.png,S,1,0.095991528,0.3,0.3,0.5,2017-04-03-10:14:01
603,104_CF_CFS,603,159,,Complete,I,M,S,F1,F1002.png,F1015.png,F1002.png,F1046.png,S,1,0.000569339,0.3,0.3,0.5,2017-04-03-10:14:04
603,104_CF_CFS,603,160,,Complete,C,M,S,M1,M1125.png,M1122.png,M1125.png,M1122.png,S,1,0.000579262,0.3,0.3,0.5,2017-04-03-10:14:06
603,104_CF_CFS,603,161,,Complete,C,A,S,M4,M4134.png,M4188.png,M4134.png,M4188.png,S,1,0.130830384,0.3,0.3,0.5,2017-04-03-10:14:24
603,104_CF_CFS,603,162,,Complete,I,M,S,F4,F4020.png,F4018.png,F4020.png,F4040.png,S,1,0.041396524,0.3,0.3,0.5,2017-04-03-10:14:26
603,104_CF_CFS,603,163,,Complete,I,A,D,F4,F4018.png,F4040.png,F4020.png,F4040.png,S,0,0.175403781,0.3,0.3,0.5,2017-04-03-10:14:29
603,104_CF_CFS,603,164,,Complete,I,M,D,M2,M2142.png,M2198.png,M2201.png,M2198.png,D,1,0.136316435,0.3,0.3,0.5,2017-04-03-10:14:31
603,104_CF_CFS,603,165,,Complete,C,M,S,M2,M2142.png,M2198.png,M2142.png,M2198.png,S,1,0.040822394,0.3,0.3,0.5,2017-04-03-10:14:33
603,104_CF_CFS,603,166,,Complete,I,M,S,M4,M4188.png,M4136.png,M4188.png,M4197.png,S,1,0.155942652,0.3,0.3,0.5,2017-04-03-10:14:36
603,104_CF_CFS,603,167,,Complete,C,M,D,M4,M4188.png,M4136.png,M4197.png,M4134.png,D,1,0.120521712,0.3,0.3,0.5,2017-04-03-10:14:38
603,104_CF_CFS,603,168,,Complete,C,M,D,M2,M2198.png,M2141.png,M2201.png,M2142.png,D,1,0.130671968,0.3,0.3,0.5,2017-04-03-10:14:40
603,104_CF_CFS,603,169,,Complete,C,M,S,F3,F3079.png,F3112.png,F3079.png,F3112.png,S,1,0.075511388,0.3,0.3,0.5,2017-04-03-10:14:43
603,104_CF_CFS,603,170,,Complete,I,A,S,F1,F1046.png,F1059.png,F1046.png,F1002.png,S,1,0.000675748,0.3,0.3,0.5,2017-04-03-10:14:45
603,104_CF_CFS,603,171,,Complete,C,M,D,F5,F5033.png,F5078.png,F5068.png,F5076.png,D,1,0.066137815,0.3,0.3,0.5,2017-04-03-10:14:47
603,104_CF_CFS,603,172,,Complete,I,M,D,M1,M1186.png,M1125.png,M1119.png,M1125.png,D,1,0.096360709,0.3,0.3,0.5,2017-04-03-10:14:49
603,104_CF_CFS,603,173,,Complete,C,M,S,F5,F5076.png,F5033.png,F5076.png,F5033.png,S,1,0.075553472,0.3,0.3,0.5,2017-04-03-10:14:52
603,104_CF_CFS,603,174,,Complete,C,A,S,M2,M2198.png,M2141.png,M2198.png,M2141.png,D,0,0.121365457,0.3,0.3,0.5,2017-04-03-10:14:54
603,104_CF_CFS,603,175,,Complete,C,A,D,M2,M2198.png,M2141.png,M2201.png,M2142.png,D,1,0.265534945,0.3,0.3,0.5,2017-04-03-10:14:57
603,104_CF_CFS,603,176,,Complete,I,M,S,M5,M5152.png,M5154.png,M5152.png,M5178.png,S,1,0.015667186,0.3,0.3,0.5,2017-04-03-10:14:59
603,104_CF_CFS,603,177,,Complete,C,A,S,M2,M2201.png,M2142.png,M2201.png,M2142.png,S,1,0.060844053,0.3,0.3,0.5,2017-04-03-10:15:01
603,104_CF_CFS,603,178,,Complete,I,A,D,M5,M5178.png,M5146.png,M5154.png,M5146.png,D,1,0.145421077,0.3,0.3,0.5,2017-04-03-10:15:03
603,104_CF_CFS,603,179,,Complete,C,M,S,F3,F3047.png,F3062.png,F3047.png,F3062.png,S,1,0.170581503,0.3,0.3,0.5,2017-04-03-10:15:06
603,104_CF_CFS,603,180,,Complete,I,A,D,F3,F3047.png,F3062.png,F3112.png,F3062.png,D,1,0.105752416,0.3,0.3,0.5,2017-04-03-10:15:08
603,104_CF_CFS,603,181,,Complete,C,A,D,F5,F5078.png,F5068.png,F5076.png,F5033.png,D,1,0.125502257,0.3,0.3,0.5,2017-04-03-10:15:10
603,104_CF_CFS,603,182,,Complete,C,M,D,F1,F1002.png,F1015.png,F1046.png,F1059.png,D,1,0.086359632,0.3,0.3,0.5,2017-04-03-10:15:13
603,104_CF_CFS,603,183,,Complete,C,M,S,M4,M4197.png,M4134.png,M4197.png,M4134.png,S,1,0.000574472,0.3,0.3,0.5,2017-04-03-10:15:15
603,104_CF_CFS,603,184,,Complete,I,A,D,M5,M5152.png,M5154.png,M5146.png,M5154.png,D,1,0.030732357,0.3,0.3,0.5,2017-04-03-10:15:17
603,104_CF_CFS,603,185,,Complete,C,M,S,F3,F3062.png,F3079.png,F3062.png,F3079.png,S,1,0.140578612,0.3,0.3,0.5,2017-04-03-10:15:20
603,104_CF_CFS,603,186,,Complete,I,M,S,M4,M4197.png,M4134.png,M4197.png,M4188.png,S,1,0.044884071,0.3,0.3,0.5,2017-04-03-10:15:22
603,104_CF_CFS,603,187,,Complete,I,A,S,F3,F3047.png,F3062.png,F3047.png,F3079.png,S,1,0.145974677,0.3,0.3,0.5,2017-04-03-10:15:24
603,104_CF_CFS,603,188,,Complete,I,A,D,M5,M5146.png,M5152.png,M5178.png,M5152.png,D,1,0.146101615,0.3,0.3,0.5,2017-04-03-10:15:27
603,104_CF_CFS,603,189,,Complete,C,M,D,M1,M1125.png,M1122.png,M1119.png,M1186.png,D,1,0.166377492,0.3,0.3,0.5,2017-04-03-10:15:29
603,104_CF_CFS,603,190,,Complete,C,A,S,F2,F2017.png,F2016.png,F2017.png,F2016.png,S,1,0.156434922,0.3,0.3,0.5,2017-04-03-10:15:31
603,104_CF_CFS,603,191,,Complete,I,M,S,F2,F2032.png,F2067.png,F2032.png,F2017.png,S,1,0.015945954,0.3,0.3,0.5,2017-04-03-10:15:34
603,104_CF_CFS,603,192,,Complete,I,M,S,F5,F5076.png,F5033.png,F5076.png,F5078.png,S,1,0.036154426,0.3,0.3,0.5,2017-04-03-10:15:36
603,104_CF_CFS,603,193,,Complete,I,A,S,F1,F1059.png,F1002.png,F1059.png,F1015.png,S,1,0.145600022,0.3,0.3,0.5,2017-04-03-10:15:38
603,104_CF_CFS,603,194,,Complete,C,A,S,F5,F5076.png,F5033.png,F5076.png,F5033.png,S,1,0.01574169,0.3,0.3,0.5,2017-04-03-10:15:40
603,104_CF_CFS,603,195,,Complete,I,M,D,M5,M5178.png,M5146.png,M5154.png,M5146.png,D,1,0.066015667,0.3,0.3,0.5,2017-04-03-10:15:43
603,104_CF_CFS,603,196,,Complete,C,M,S,F4,F4018.png,F4040.png,F4018.png,F4040.png,S,1,0.211187316,0.3,0.3,0.5,2017-04-03-10:15:45
603,104_CF_CFS,603,197,,Complete,C,A,S,M2,M2142.png,M2198.png,M2142.png,M2198.png,S,1,0.400799949,0.3,0.3,0.5,2017-04-03-10:15:48
603,104_CF_CFS,603,198,,Complete,I,M,D,F2,F2017.png,F2016.png,F2067.png,F2016.png,D,1,0.075438745,0.3,0.3,0.5,2017-04-03-10:15:50
603,104_CF_CFS,603,199,,Complete,C,M,S,M3,M3187.png,M3013.png,M3187.png,M3013.png,S,1,0.371286207,0.3,0.3,0.5,2017-04-03-10:15:53
603,104_CF_CFS,603,200,,Complete,I,A,S,M4,M4136.png,M4197.png,M4136.png,M4134.png,S,1,0.235435909,0.3,0.3,0.5,2017-04-03-10:15:55
603,104_CF_CFS,603,201,,Complete,I,A,S,F5,F5078.png,F5068.png,F5078.png,F5076.png,D,0,0.816024306,0.3,0.3,0.5,2017-04-03-10:16:12
603,104_CF_CFS,603,202,,Complete,C,A,D,F3,F3112.png,F3047.png,F3062.png,F3079.png,D,1,0.111131032,0.3,0.3,0.5,2017-04-03-10:16:15
603,104_CF_CFS,603,203,,Complete,C,M,S,M1,M1186.png,M1125.png,M1186.png,M1125.png,S,1,0.255615641,0.3,0.3,0.5,2017-04-03-10:16:17
603,104_CF_CFS,603,204,,Complete,C,M,S,M2,M2198.png,M2141.png,M2198.png,M2141.png,S,1,0.055378873,0.3,0.3,0.5,2017-04-03-10:16:20
603,104_CF_CFS,603,205,,Complete,I,A,S,M4,M4134.png,M4188.png,M4134.png,M4136.png,S,1,0.101311979,0.3,0.3,0.5,2017-04-03-10:16:22
603,104_CF_CFS,603,206,,Complete,C,M,D,F1,F1015.png,F1046.png,F1059.png,F1002.png,D,1,0.076062593,0.3,0.3,0.5,2017-04-03-10:16:24
603,104_CF_CFS,603,207,,Complete,C,A,D,M2,M2201.png,M2142.png,M2198.png,M2141.png,D,1,0.135931088,0.3,0.3,0.5,2017-04-03-10:16:26
603,104_CF_CFS,603,208,,Complete,I,M,S,F2,F2016.png,F2032.png,F2016.png,F2067.png,D,0,0.000604923,0.3,0.3,0.5,2017-04-03-10:16:29
603,104_CF_CFS,603,209,,Complete,I,A,D,F1,F1059.png,F1002.png,F1046.png,F1002.png,D,1,0.231334201,0.3,0.3,0.5,2017-04-03-10:16:31
603,104_CF_CFS,603,210,,Complete,C,A,S,M5,M5152.png,M5154.png,M5152.png,M5154.png,S,1,0.07079894,0.3,0.3,0.5,2017-04-03-10:16:33
603,104_CF_CFS,603,211,,Complete,C,M,D,F3,F3062.png,F3079.png,F3112.png,F3047.png,D,1,0.076072173,0.3,0.3,0.5,2017-04-03-10:16:36
603,104_CF_CFS,603,212,,Complete,I,A,D,F2,F2016.png,F2032.png,F2017.png,F2032.png,D,1,0.201003871,0.3,0.3,0.5,2017-04-03-10:16:38
603,104_CF_CFS,603,213,,Complete,I,A,S,F3,F3062.png,F3079.png,F3062.png,F3112.png,S,1,0.150871544,0.3,0.3,0.5,2017-04-03-10:16:41
603,104_CF_CFS,603,214,,Complete,C,M,S,F3,F3112.png,F3047.png,F3112.png,F3047.png,S,1,0.095490961,0.3,0.3,0.5,2017-04-03-10:16:43
603,104_CF_CFS,603,215,,Complete,C,A,D,M4,M4134.png,M4188.png,M4136.png,M4197.png,S,0,0.145730724,0.3,0.3,0.5,2017-04-03-10:16:45
603,104_CF_CFS,603,216,,Complete,I,M,S,M2,M2141.png,M2201.png,M2141.png,M2142.png,S,1,0.000576867,0.3,0.3,0.5,2017-04-03-10:16:47
603,104_CF_CFS,603,217,,Complete,I,M,D,F4,F4064.png,F4020.png,F4040.png,F4020.png,D,1,0.050746381,0.3,0.3,0.5,2017-04-03-10:16:50
603,104_CF_CFS,603,218,,Complete,I,M,D,F1,F1015.png,F1046.png,F1002.png,F1046.png,D,1,0.115465403,0.3,0.3,0.5,2017-04-03-10:16:52
603,104_CF_CFS,603,219,,Complete,C,M,S,F5,F5033.png,F5078.png,F5033.png,F5078.png,S,1,0.070650104,0.3,0.3,0.5,2017-04-03-10:16:54
603,104_CF_CFS,603,220,,Complete,I,A,D,M4,M4197.png,M4134.png,M4136.png,M4134.png,D,1,0.100931506,0.3,0.3,0.5,2017-04-03-10:16:57
603,104_CF_CFS,603,221,,Complete,C,M,D,F2,F2032.png,F2067.png,F2017.png,F2016.png,D,1,0.190663957,0.3,0.3,0.5,2017-04-03-10:16:59
603,104_CF_CFS,603,222,,Complete,C,A,D,M3,M3153.png,M3183.png,M3187.png,M3013.png,S,0,0.165896085,0.3,0.3,0.5,2017-04-03-10:17:02
603,104_CF_CFS,603,223,,Complete,C,M,D,F4,F4018.png,F4040.png,F4064.png,F4020.png,S,0,0.18103901,0.3,0.3,0.5,2017-04-03-10:17:04
603,104_CF_CFS,603,224,,Complete,I,A,S,F4,F4064.png,F4020.png,F4064.png,F4018.png,S,1,0.070565935,0.3,0.3,0.5,2017-04-03-10:17:06
603,104_CF_CFS,603,225,,Complete,C,A,D,M3,M3183.png,M3187.png,M3013.png,M3153.png,D,1,0.120687655,0.3,0.3,0.5,2017-04-03-10:17:09
603,104_CF_CFS,603,226,,Complete,C,A,D,M1,M1186.png,M1125.png,M1122.png,M1119.png,D,1,0.260909061,0.3,0.3,0.5,2017-04-03-10:17:11
603,104_CF_CFS,603,227,,Complete,I,A,S,F3,F3079.png,F3112.png,F3079.png,F3047.png,S,1,0.19143322,0.3,0.3,0.5,2017-04-03-10:17:13
603,104_CF_CFS,603,228,,Complete,I,A,S,F3,F3112.png,F3047.png,F3112.png,F3062.png,S,1,0.000658299,0.3,0.3,0.5,2017-04-03-10:17:16
603,104_CF_CFS,603,229,,Complete,I,A,S,F4,F4040.png,F4064.png,F4040.png,F4020.png,S,1,0.035407511,0.3,0.3,0.5,2017-04-03-10:17:18
603,104_CF_CFS,603,230,,Complete,I,M,D,M5,M5146.png,M5152.png,M5178.png,M5152.png,D,1,0.050991126,0.3,0.3,0.5,2017-04-03-10:17:20
603,104_CF_CFS,603,231,,Complete,C,A,D,F4,F4020.png,F4018.png,F4040.png,F4064.png,D,1,0.220712868,0.3,0.3,0.5,2017-04-03-10:17:23
603,104_CF_CFS,603,232,,Complete,C,A,D,F3,F3079.png,F3112.png,F3047.png,F3062.png,D,1,0.126013922,0.3,0.3,0.5,2017-04-03-10:17:25
603,104_CF_CFS,603,233,,Complete,I,A,S,F2,F2032.png,F2067.png,F2032.png,F2017.png,S,1,0.08576771,0.3,0.3,0.5,2017-04-03-10:17:27
603,104_CF_CFS,603,234,,Complete,C,M,S,M3,M3153.png,M3183.png,M3153.png,M3183.png,S,1,0.05115878,0.3,0.3,0.5,2017-04-03-10:17:30
603,104_CF_CFS,603,235,,Complete,I,M,D,F3,F3079.png,F3112.png,F3062.png,F3112.png,D,1,0.241121777,0.3,0.3,0.5,2017-04-03-10:17:32
603,104_CF_CFS,603,236,,Complete,C,A,D,M3,M3187.png,M3013.png,M3153.png,M3183.png,S,0,0.28629736,0.3,0.3,0.5,2017-04-03-10:17:35
603,104_CF_CFS,603,237,,Complete,C,A,S,F1,F1059.png,F1002.png,F1059.png,F1002.png,S,1,0.110794013,0.3,0.3,0.5,2017-04-03-10:17:37
603,104_CF_CFS,603,238,,Complete,I,M,S,M4,M4134.png,M4188.png,M4134.png,M4136.png,S,1,0.016373301,0.3,0.3,0.5,2017-04-03-10:17:39
603,104_CF_CFS,603,239,,Complete,I,M,D,M4,M4188.png,M4136.png,M4134.png,M4136.png,S,0,0.065484991,0.3,0.3,0.5,2017-04-03-10:17:41
603,104_CF_CFS,603,240,,Complete,C,A,D,M2,M2142.png,M2198.png,M2141.png,M2201.png,D,1,0.185520356,0.3,0.3,0.5,2017-04-03-10:17:44
603,104_CF_CFS,603,241,,Complete,I,A,S,F5,F5076.png,F5033.png,F5076.png,F5078.png,S,1,0.096290226,0.3,0.3,0.5,2017-04-03-10:17:58
603,104_CF_CFS,603,242,,Complete,C,M,S,F5,F5078.png,F5068.png,F5078.png,F5068.png,S,1,0.000672669,0.3,0.3,0.5,2017-04-03-10:18:00
603,104_CF_CFS,603,243,,Complete,C,A,D,F2,F2016.png,F2032.png,F2067.png,F2017.png,D,1,0.066423853,0.3,0.3,0.5,2017-04-03-10:18:02
603,104_CF_CFS,603,244,,Complete,C,A,S,M1,M1125.png,M1122.png,M1125.png,M1122.png,D,0,0.160566397,0.3,0.3,0.5,2017-04-03-10:18:04
603,104_CF_CFS,603,245,,Complete,I,A,D,M2,M2198.png,M2141.png,M2142.png,M2141.png,D,1,0.161008798,0.3,0.3,0.5,2017-04-03-10:18:07
603,104_CF_CFS,603,246,,Complete,I,A,S,M5,M5152.png,M5154.png,M5152.png,M5178.png,S,1,0.105464667,0.3,0.3,0.5,2017-04-03-10:18:09
603,104_CF_CFS,603,247,,Complete,C,A,D,F4,F4018.png,F4040.png,F4064.png,F4020.png,D,1,0.155371516,0.3,0.3,0.5,2017-04-03-10:18:12
603,104_CF_CFS,603,248,,Complete,I,A,S,M2,M2141.png,M2201.png,M2141.png,M2142.png,S,1,0.116180156,0.3,0.3,0.5,2017-04-03-10:18:14
603,104_CF_CFS,603,249,,Complete,C,A,S,F3,F3112.png,F3047.png,F3112.png,F3047.png,S,1,0.000649617,0.3,0.3,0.5,2017-04-03-10:18:16
603,104_CF_CFS,603,250,,Complete,I,A,S,F5,F5033.png,F5078.png,F5033.png,F5068.png,S,1,0.0311377,0.3,0.3,0.5,2017-04-03-10:18:18
603,104_CF_CFS,603,251,,Complete,C,M,D,F3,F3047.png,F3062.png,F3079.png,F3112.png,D,1,0.120662678,0.3,0.3,0.5,2017-04-03-10:18:21
603,104_CF_CFS,603,252,,Complete,C,M,S,F4,F4064.png,F4020.png,F4064.png,F4020.png,S,1,0.030836222,0.3,0.3,0.5,2017-04-03-10:18:23
603,104_CF_CFS,603,253,,Complete,C,A,D,M5,M5178.png,M5146.png,M5152.png,M5154.png,D,1,0.106345749,0.3,0.3,0.5,2017-04-03-10:18:25
603,104_CF_CFS,603,254,,Complete,I,M,D,F5,F5078.png,F5068.png,F5033.png,F5068.png,D,1,0.150944081,0.3,0.3,0.5,2017-04-03-10:18:28
603,104_CF_CFS,603,255,,Complete,I,M,S,M3,M3153.png,M3183.png,M3153.png,M3187.png,S,1,0.100791332,0.3,0.3,0.5,2017-04-03-10:18:30
603,104_CF_CFS,603,256,,Complete,I,A,D,M1,M1125.png,M1122.png,M1186.png,M1122.png,D,1,0.160595138,0.3,0.3,0.5,2017-04-03-10:18:32
603,104_CF_CFS,603,257,,Complete,C,A,D,F2,F2017.png,F2016.png,F2032.png,F2067.png,D,1,0.306032638,0.3,0.3,0.5,2017-04-03-10:18:35
603,104_CF_CFS,603,258,,Complete,I,M,D,M3,M3187.png,M3013.png,M3183.png,M3013.png,D,1,0.105577235,0.3,0.3,0.5,2017-04-03-10:18:37
603,104_CF_CFS,603,259,,Complete,I,A,D,F5,F5076.png,F5033.png,F5068.png,F5033.png,D,1,0.116456957,0.3,0.3,0.5,2017-04-03-10:18:40
603,104_CF_CFS,603,260,,Complete,C,M,D,M3,M3183.png,M3187.png,M3013.png,M3153.png,D,1,0.160520207,0.3,0.3,0.5,2017-04-03-10:18:42
603,104_CF_CFS,603,261,,Complete,I,A,S,M2,M2142.png,M2198.png,M2142.png,M2141.png,S,1,0.161094336,0.3,0.3,0.5,2017-04-03-10:18:44
603,104_CF_CFS,603,262,,Complete,C,M,S,M1,M1119.png,M1186.png,M1119.png,M1186.png,D,0,0.370615376,0.3,0.3,0.5,2017-04-03-10:18:47
603,104_CF_CFS,603,263,,Complete,I,M,S,F3,F3079.png,F3112.png,F3079.png,F3047.png,S,1,0.135705353,0.3,0.3,0.5,2017-04-03-10:18:49
603,104_CF_CFS,603,264,,Complete,I,M,S,F3,F3062.png,F3079.png,F3062.png,F3112.png,S,1,0.171194681,0.3,0.3,0.5,2017-04-03-10:18:52
603,104_CF_CFS,603,265,,Complete,C,A,S,F2,F2016.png,F2032.png,F2016.png,F2032.png,S,1,0.000684987,0.3,0.3,0.5,2017-04-03-10:18:54
603,104_CF_CFS,603,266,,Complete,C,M,D,M2,M2201.png,M2142.png,M2198.png,M2141.png,D,1,0.106195181,0.3,0.3,0.5,2017-04-03-10:18:56
603,104_CF_CFS,603,267,,Complete,C,M,D,M3,M3187.png,M3013.png,M3153.png,M3183.png,D,1,0.225821697,0.3,0.3,0.5,2017-04-03-10:18:59
603,104_CF_CFS,603,268,,Complete,C,M,S,M5,M5146.png,M5152.png,M5146.png,M5152.png,S,1,0.095539889,0.3,0.3,0.5,2017-04-03-10:19:01
603,104_CF_CFS,603,269,,Complete,I,M,D,M2,M2201.png,M2142.png,M2141.png,M2142.png,S,0,0.22584028,0.3,0.3,0.5,2017-04-03-10:19:03
603,104_CF_CFS,603,270,,Complete,I,M,S,M2,M2198.png,M2141.png,M2198.png,M2201.png,S,1,0.150540727,0.3,0.3,0.5,2017-04-03-10:19:06
603,104_CF_CFS,603,271,,Complete,C,A,S,M1,M1119.png,M1186.png,M1119.png,M1186.png,S,1,0.071324826,0.3,0.3,0.5,2017-04-03-10:19:08
603,104_CF_CFS,603,272,,Complete,I,M,S,F2,F2067.png,F2017.png,F2067.png,F2016.png,S,1,0.045328375,0.3,0.3,0.5,2017-04-03-10:19:10
603,104_CF_CFS,603,273,,Complete,C,A,S,F1,F1046.png,F1059.png,F1046.png,F1059.png,S,1,0.105737982,0.3,0.3,0.5,2017-04-03-10:19:13
603,104_CF_CFS,603,274,,Complete,I,A,S,M4,M4188.png,M4136.png,M4188.png,M4197.png,S,1,0.116340283,0.3,0.3,0.5,2017-04-03-10:19:15
603,104_CF_CFS,603,275,,Complete,I,M,S,F4,F4040.png,F4064.png,F4040.png,F4020.png,S,1,0.030453504,0.3,0.3,0.5,2017-04-03-10:19:17
603,104_CF_CFS,603,276,,Complete,C,A,D,F2,F2032.png,F2067.png,F2017.png,F2016.png,D,1,0.076205954,0.3,0.3,0.5,2017-04-03-10:19:20
603,104_CF_CFS,603,277,,Complete,I,M,S,M5,M5154.png,M5178.png,M5154.png,M5146.png,S,1,0.201094884,0.3,0.3,0.5,2017-04-03-10:19:22
603,104_CF_CFS,603,278,,Complete,C,M,S,M4,M4134.png,M4188.png,M4134.png,M4188.png,S,1,0.120967535,0.3,0.3,0.5,2017-04-03-10:19:24
603,104_CF_CFS,603,279,,Complete,I,M,S,M1,M1119.png,M1186.png,M1119.png,M1125.png,S,1,0.041017763,0.3,0.3,0.5,2017-04-03-10:19:27
603,104_CF_CFS,603,280,,Complete,C,A,S,M5,M5154.png,M5178.png,M5154.png,M5178.png,S,1,0.256347502,0.3,0.3,0.5,2017-04-03-10:19:29
603,104_CF_CFS,603,281,,Complete,C,A,D,F2,F2067.png,F2017.png,F2016.png,F2032.png,D,1,0.250608943,0.3,0.3,0.5,2017-04-03-10:19:44
603,104_CF_CFS,603,282,,Complete,I,A,S,M2,M2201.png,M2142.png,M2201.png,M2198.png,S,1,0.271406258,0.3,0.3,0.5,2017-04-03-10:19:47
603,104_CF_CFS,603,283,,Complete,C,M,S,M1,M1122.png,M1119.png,M1122.png,M1119.png,S,1,0.210597447,0.3,0.3,0.5,2017-04-03-10:19:49
603,104_CF_CFS,603,284,,Complete,I,A,D,F2,F2067.png,F2017.png,F2032.png,F2017.png,D,1,0.20103706,0.3,0.3,0.5,2017-04-03-10:19:51
603,104_CF_CFS,603,285,,Complete,I,A,S,M5,M5178.png,M5146.png,M5178.png,M5152.png,S,1,0.095949102,0.3,0.3,0.5,2017-04-03-10:19:54
603,104_CF_CFS,603,286,,Complete,I,M,S,F5,F5068.png,F5076.png,F5068.png,F5033.png,S,1,0.000644955,0.3,0.3,0.5,2017-04-03-10:19:56
603,104_CF_CFS,603,287,,Complete,C,M,D,F1,F1046.png,F1059.png,F1002.png,F1015.png,D,1,0.280960145,0.3,0.3,0.5,2017-04-03-10:19:58
603,104_CF_CFS,603,288,,Complete,I,A,D,F5,F5078.png,F5068.png,F5033.png,F5068.png,D,1,0.075428929,0.3,0.3,0.5,2017-04-03-10:20:01
603,104_CF_CFS,603,289,,Complete,C,A,S,F2,F2032.png,F2067.png,F2032.png,F2067.png,S,1,0.041341374,0.3,0.3,0.5,2017-04-03-10:20:03
603,104_CF_CFS,603,290,,Complete,C,A,S,M3,M3013.png,M3153.png,M3013.png,M3153.png,S,1,0.000687724,0.3,0.3,0.5,2017-04-03-10:20:05
603,104_CF_CFS,603,291,,Complete,C,M,S,F4,F4040.png,F4064.png,F4040.png,F4064.png,S,1,0.081256105,0.3,0.3,0.5,2017-04-03-10:20:08
603,104_CF_CFS,603,292,,Complete,C,M,D,F3,F3112.png,F3047.png,F3062.png,F3079.png,D,1,0.135789864,0.3,0.3,0.5,2017-04-03-10:20:10
603,104_CF_CFS,603,293,,Complete,I,M,D,F1,F1059.png,F1002.png,F1046.png,F1002.png,S,0,0.121244699,0.3,0.3,0.5,2017-04-03-10:20:12
603,104_CF_CFS,603,294,,Complete,C,M,S,M5,M5154.png,M5178.png,M5154.png,M5178.png,S,1,0.000610055,0.3,0.3,0.5,2017-04-03-10:20:14
603,104_CF_CFS,603,295,,Complete,C,M,S,F2,F2016.png,F2032.png,F2016.png,F2032.png,S,1,0.000663773,0.3,0.3,0.5,2017-04-03-10:20:17
603,104_CF_CFS,603,296,,Complete,I,M,D,F4,F4020.png,F4018.png,F4064.png,F4018.png,D,1,0.1411938,0.3,0.3,0.5,2017-04-03-10:20:19
603,104_CF_CFS,603,297,,Complete,I,M,S,M5,M5178.png,M5146.png,M5178.png,M5152.png,S,1,0.09629878,0.3,0.3,0.5,2017-04-03-10:20:21
603,104_CF_CFS,603,298,,Complete,C,M,D,M5,M5178.png,M5146.png,M5152.png,M5154.png,D,1,0.075470565,0.3,0.3,0.5,2017-04-03-10:20:24
603,104_CF_CFS,603,299,,Complete,C,A,D,M5,M5154.png,M5178.png,M5146.png,M5152.png,D,1,0.101306846,0.3,0.3,0.5,2017-04-03-10:20:26
603,104_CF_CFS,603,300,,Complete,C,A,S,F3,F3047.png,F3062.png,F3047.png,F3062.png,S,1,0.000576183,0.3,0.3,0.5,2017-04-03-10:20:28
603,104_CF_CFS,603,301,,Complete,C,M,D,F5,F5076.png,F5033.png,F5078.png,F5068.png,D,1,0.066043381,0.3,0.3,0.5,2017-04-03-10:20:31
603,104_CF_CFS,603,302,,Complete,I,A,S,F2,F2016.png,F2032.png,F2016.png,F2067.png,S,1,0.116182551,0.3,0.3,0.5,2017-04-03-10:20:33
603,104_CF_CFS,603,303,,Complete,C,A,S,M2,M2141.png,M2201.png,M2141.png,M2201.png,S,1,0.030413815,0.3,0.3,0.5,2017-04-03-10:20:35
603,104_CF_CFS,603,304,,Complete,I,M,S,M1,M1125.png,M1122.png,M1125.png,M1119.png,S,1,0.006225782,0.3,0.3,0.5,2017-04-03-10:20:37
603,104_CF_CFS,603,305,,Complete,I,M,D,F2,F2032.png,F2067.png,F2016.png,F2067.png,D,1,0.060767411,0.3,0.3,0.5,2017-04-03-10:20:40
603,104_CF_CFS,603,306,,Complete,C,M,D,M5,M5152.png,M5154.png,M5178.png,M5146.png,D,1,0.086258013,0.3,0.3,0.5,2017-04-03-10:20:42
603,104_CF_CFS,603,307,,Complete,C,M,S,M3,M3183.png,M3187.png,M3183.png,M3187.png,S,1,0.035720558,0.3,0.3,0.5,2017-04-03-10:20:44
603,104_CF_CFS,603,308,,Complete,I,M,D,F2,F2067.png,F2017.png,F2032.png,F2017.png,D,1,0.046225987,0.3,0.3,0.5,2017-04-03-10:20:46
603,104_CF_CFS,603,309,,Complete,C,A,S,M1,M1186.png,M1125.png,M1186.png,M1125.png,S,1,0.091495662,0.3,0.3,0.5,2017-04-03-10:20:49
603,104_CF_CFS,603,310,,Complete,C,M,D,M3,M3153.png,M3183.png,M3187.png,M3013.png,D,1,0.225572718,0.3,0.3,0.5,2017-04-03-10:20:51
603,104_CF_CFS,603,311,,Complete,C,A,D,F1,F1015.png,F1046.png,F1059.png,F1002.png,D,1,0.085426243,0.3,0.3,0.5,2017-04-03-10:20:54
603,104_CF_CFS,603,312,,Complete,C,M,S,M3,M3013.png,M3153.png,M3013.png,M3153.png,S,1,0.08077333,0.3,0.3,0.5,2017-04-03-10:20:56
603,104_CF_CFS,603,313,,Complete,I,A,S,F1,F1002.png,F1015.png,F1002.png,F1046.png,S,1,0.010742519,0.3,0.3,0.5,2017-04-03-10:20:58
603,104_CF_CFS,603,314,,Complete,I,M,S,M2,M2201.png,M2142.png,M2201.png,M2198.png,S,1,0.021321832,0.3,0.3,0.5,2017-04-03-10:21:00
603,104_CF_CFS,603,315,,Complete,C,A,S,M5,M5146.png,M5152.png,M5146.png,M5152.png,S,1,0.015478575,0.3,0.3,0.5,2017-04-03-10:21:03
603,104_CF_CFS,603,316,,Complete,C,A,S,M3,M3183.png,M3187.png,M3183.png,M3187.png,S,1,0.00057413,0.3,0.3,0.5,2017-04-03-10:21:05
603,104_CF_CFS,603,317,,Complete,C,M,S,F1,F1015.png,F1046.png,F1015.png,F1046.png,S,1,0.085529573,0.3,0.3,0.5,2017-04-03-10:21:07
603,104_CF_CFS,603,318,,Complete,I,A,S,M5,M5154.png,M5178.png,M5154.png,M5146.png,S,1,0.070943328,0.3,0.3,0.5,2017-04-03-10:21:09
603,104_CF_CFS,603,319,,Complete,C,A,S,F4,F4064.png,F4020.png,F4064.png,F4020.png,S,1,0.00060287,0.3,0.3,0.5,2017-04-03-10:21:12
603,104_CF_CFS,603,320,,Complete,C,A,D,M1,M1119.png,M1186.png,M1125.png,M1122.png,D,1,0.11602482,0.3,0.3,0.5,2017-04-03-10:21:14
603,106_CF_Mono,603,1,,Complete,C,A,S,F5,F5033.png,F5078.png,F5033.png,F5078.png,S,1,0.420246109,0.3,0.3,0.5,2017-04-03-10:22:19
603,106_CF_Mono,603,2,,Complete,I,M,D,F4,F4064.png,F4020.png,F4018.png,F4020.png,S,0,0.220758994,0.3,0.3,0.5,2017-04-03-10:22:21
603,106_CF_Mono,603,3,,Complete,C,M,S,F3,F3047.png,F3062.png,F3047.png,F3062.png,S,1,0.075959263,0.3,0.3,0.5,2017-04-03-10:22:23
603,106_CF_Mono,603,4,,Complete,C,A,S,F1,F1059.png,F1046.png,F1059.png,F1046.png,S,1,0.080756222,0.3,0.3,0.5,2017-04-03-10:22:26
603,106_CF_Mono,603,5,,Complete,C,A,D,F3,F3112.png,F3079.png,F3047.png,F3062.png,D,1,0.181259698,0.3,0.3,0.5,2017-04-03-10:22:28
603,106_CF_Mono,603,6,,Complete,C,M,S,F3,F3079.png,F3047.png,F3079.png,F3047.png,S,1,0.245802062,0.3,0.3,0.5,2017-04-03-10:22:31
603,106_CF_Mono,603,7,,Complete,C,A,S,M2,M2141.png,M2198.png,M2141.png,M2198.png,S,1,0.055923577,0.3,0.3,0.5,2017-04-03-10:22:33
603,106_CF_Mono,603,8,,Complete,I,A,D,F3,F3112.png,F3079.png,F3062.png,F3079.png,D,1,0.170440537,0.3,0.3,0.5,2017-04-03-10:22:35
603,106_CF_Mono,603,9,,Complete,C,A,S,F2,F2067.png,F2032.png,F2067.png,F2032.png,S,1,0.150605009,0.3,0.3,0.5,2017-04-03-10:22:38
603,106_CF_Mono,603,10,,Complete,I,A,S,M3,M3183.png,M3153.png,M3183.png,M3013.png,S,1,0.085398871,0.3,0.3,0.5,2017-04-03-10:22:40
603,106_CF_Mono,603,11,,Complete,C,A,S,F2,F2032.png,F2017.png,F2032.png,F2017.png,S,1,0.080945432,0.3,0.3,0.5,2017-04-03-10:22:42
603,106_CF_Mono,603,12,,Complete,C,A,D,F1,F1046.png,F1015.png,F1002.png,F1059.png,D,1,0.206441679,0.3,0.3,0.5,2017-04-03-10:22:45
603,106_CF_Mono,603,13,,Complete,C,M,S,F4,F4064.png,F4020.png,F4064.png,F4020.png,S,1,0.080901295,0.3,0.3,0.5,2017-04-03-10:22:47
603,106_CF_Mono,603,14,,Complete,I,M,D,M5,M5178.png,M5154.png,M5146.png,M5154.png,D,1,0.190461511,0.3,0.3,0.5,2017-04-03-10:22:49
603,106_CF_Mono,603,15,,Complete,C,M,D,F1,F1046.png,F1015.png,F1002.png,F1059.png,D,1,0.205625991,0.3,0.3,0.5,2017-04-03-10:22:52
603,106_CF_Mono,603,16,,Complete,I,A,S,M1,M1122.png,M1186.png,M1122.png,M1119.png,S,1,0.000600817,0.3,0.3,0.5,2017-04-03-10:22:54
603,106_CF_Mono,603,17,,Complete,I,M,D,M4,M4197.png,M4136.png,M4188.png,M4136.png,D,1,0.096295701,0.3,0.3,0.5,2017-04-03-10:22:56
603,106_CF_Mono,603,18,,Complete,C,A,S,F3,F3079.png,F3047.png,F3079.png,F3047.png,S,1,0.171351001,0.3,0.3,0.5,2017-04-03-10:22:59
603,106_CF_Mono,603,19,,Complete,I,A,S,M4,M4188.png,M4197.png,M4188.png,M4136.png,S,1,0.00064996,0.3,0.3,0.5,2017-04-03-10:23:01
603,106_CF_Mono,603,20,,Complete,I,A,S,M3,M3153.png,M3013.png,M3153.png,M3187.png,S,1,0.300489789,0.3,0.3,0.5,2017-04-03-10:23:04
603,106_CF_Mono,603,21,,Complete,C,A,D,M1,M1186.png,M1119.png,M1125.png,M1122.png,D,1,0.241426291,0.3,0.3,0.5,2017-04-03-10:23:06
603,106_CF_Mono,603,22,,Complete,C,A,S,F5,F5068.png,F5076.png,F5068.png,F5076.png,S,1,0.195480868,0.3,0.3,0.5,2017-04-03-10:23:08
603,106_CF_Mono,603,23,,Complete,I,A,D,F4,F4064.png,F4020.png,F4018.png,F4020.png,S,0,0.105573488,0.3,0.3,0.5,2017-04-03-10:23:11
603,106_CF_Mono,603,24,,Complete,C,A,D,F2,F2017.png,F2016.png,F2067.png,F2032.png,D,1,0.135486719,0.3,0.3,0.5,2017-04-03-10:23:13
603,106_CF_Mono,603,25,,Complete,C,A,D,M1,M1119.png,M1125.png,M1122.png,M1186.png,D,1,0.12602795,0.3,0.3,0.5,2017-04-03-10:23:15
603,106_CF_Mono,603,26,,Complete,I,M,D,M5,M5152.png,M5146.png,M5154.png,M5146.png,S,0,0.150813721,0.3,0.3,0.5,2017-04-03-10:23:18
603,106_CF_Mono,603,27,,Complete,C,A,S,F2,F2016.png,F2067.png,F2016.png,F2067.png,S,1,0.000601015,0.3,0.3,0.5,2017-04-03-10:23:20
603,106_CF_Mono,603,28,,Complete,C,M,D,M1,M1122.png,M1186.png,M1119.png,M1125.png,D,1,0.086415996,0.3,0.3,0.5,2017-04-03-10:23:22
603,106_CF_Mono,603,29,,Complete,C,A,D,F1,F1059.png,F1046.png,F1015.png,F1002.png,D,1,0.205964036,0.3,0.3,0.5,2017-04-03-10:23:25
603,106_CF_Mono,603,30,,Complete,C,M,S,M3,M3013.png,M3187.png,M3013.png,M3187.png,S,1,0.116535037,0.3,0.3,0.5,2017-04-03-10:23:27
603,106_CF_Mono,603,31,,Complete,I,A,S,F3,F3062.png,F3112.png,F3062.png,F3079.png,S,1,0.170655065,0.3,0.3,0.5,2017-04-03-10:23:30
603,106_CF_Mono,603,32,,Complete,I,A,D,F2,F2017.png,F2016.png,F2032.png,F2016.png,D,1,0.125942413,0.3,0.3,0.5,2017-04-03-10:23:32
603,106_CF_Mono,603,33,,Complete,C,A,D,F3,F3047.png,F3062.png,F3112.png,F3079.png,D,1,0.255640276,0.3,0.3,0.5,2017-04-03-10:23:34
603,106_CF_Mono,603,34,,Complete,I,M,S,M3,M3013.png,M3187.png,M3013.png,M3183.png,S,1,0.000615872,0.3,0.3,0.5,2017-04-03-10:23:37
603,106_CF_Mono,603,35,,Complete,I,A,S,F5,F5078.png,F5068.png,F5078.png,F5076.png,S,1,0.000592948,0.3,0.3,0.5,2017-04-03-10:23:39
603,106_CF_Mono,603,36,,Complete,I,M,S,F5,F5078.png,F5068.png,F5078.png,F5076.png,S,1,0.000588842,0.3,0.3,0.5,2017-04-03-10:23:41
603,106_CF_Mono,603,37,,Complete,I,M,S,F1,F1059.png,F1046.png,F1059.png,F1015.png,S,1,0.006057786,0.3,0.3,0.5,2017-04-03-10:23:43
603,106_CF_Mono,603,38,,Complete,I,A,D,F3,F3047.png,F3062.png,F3079.png,F3062.png,D,1,0.115565311,0.3,0.3,0.5,2017-04-03-10:23:46
603,106_CF_Mono,603,39,,Complete,I,A,D,F4,F4018.png,F4064.png,F4040.png,F4064.png,D,1,0.180664355,0.3,0.3,0.5,2017-04-03-10:23:48
603,106_CF_Mono,603,40,,Complete,I,A,D,M3,M3187.png,M3183.png,M3013.png,M3183.png,D,1,0.095552206,0.3,0.3,0.5,2017-04-03-10:23:50
603,106_CF_Mono,603,41,,Complete,I,A,D,M4,M4197.png,M4136.png,M4188.png,M4136.png,D,1,0.013472201,0.3,0.3,0.5,2017-04-03-10:24:05
603,106_CF_Mono,603,42,,Complete,I,M,D,M1,M1125.png,M1122.png,M1119.png,M1122.png,D,1,0.125831898,0.3,0.3,0.5,2017-04-03-10:24:07
603,106_CF_Mono,603,43,,Complete,C,M,D,M3,M3153.png,M3013.png,M3187.png,M3183.png,D,1,0.445546817,0.3,0.3,0.5,2017-04-03-10:24:10
603,106_CF_Mono,603,44,,Complete,C,M,D,F5,F5078.png,F5068.png,F5076.png,F5033.png,D,1,0.125734042,0.3,0.3,0.5,2017-04-03-10:24:12
603,106_CF_Mono,603,45,,Complete,I,M,S,M1,M1119.png,M1125.png,M1119.png,M1122.png,S,1,0.005520951,0.3,0.3,0.5,2017-04-03-10:24:14
603,106_CF_Mono,603,46,,Complete,I,A,D,M5,M5152.png,M5146.png,M5154.png,M5146.png,S,0,0.02630728,0.3,0.3,0.5,2017-04-03-10:24:17
603,106_CF_Mono,603,47,,Complete,C,A,D,M5,M5178.png,M5154.png,M5152.png,M5146.png,D,1,0.036218067,0.3,0.3,0.5,2017-04-03-10:24:19
603,106_CF_Mono,603,48,,Complete,C,M,D,F2,F2017.png,F2016.png,F2067.png,F2032.png,D,1,0.12578821,0.3,0.3,0.5,2017-04-03-10:24:21
603,106_CF_Mono,603,49,,Complete,I,A,D,F5,F5068.png,F5076.png,F5078.png,F5076.png,D,1,0.150574215,0.3,0.3,0.5,2017-04-03-10:24:24
603,106_CF_Mono,603,50,,Complete,I,M,S,M2,M2198.png,M2201.png,M2198.png,M2142.png,S,1,0.000591291,0.3,0.3,0.5,2017-04-03-10:24:26
603,106_CF_Mono,603,51,,Complete,I,M,S,F3,F3112.png,F3079.png,F3112.png,F3047.png,S,1,0.016291869,0.3,0.3,0.5,2017-04-03-10:24:28
603,106_CF_Mono,603,52,,Complete,I,A,D,F1,F1015.png,F1002.png,F1046.png,F1002.png,S,0,0.126371128,0.3,0.3,0.5,2017-04-03-10:24:30
603,106_CF_Mono,603,53,,Complete,I,A,D,M3,M3183.png,M3153.png,M3187.png,M3153.png,D,1,0.086193688,0.3,0.3,0.5,2017-04-03-10:24:33
603,106_CF_Mono,603,54,,Complete,C,A,D,F4,F4018.png,F4064.png,F4020.png,F4040.png,S,0,0.195790172,0.3,0.3,0.5,2017-04-03-10:24:35
603,106_CF_Mono,603,55,,Complete,I,A,S,M3,M3013.png,M3187.png,M3013.png,M3183.png,S,1,0.000575156,0.3,0.3,0.5,2017-04-03-10:24:37
603,106_CF_Mono,603,56,,Complete,C,A,S,M4,M4197.png,M4136.png,M4197.png,M4136.png,S,1,0.010750389,0.3,0.3,0.5,2017-04-03-10:24:40
603,106_CF_Mono,603,57,,Complete,C,M,S,M5,M5146.png,M5178.png,M5146.png,M5178.png,D,0,0.000571735,0.3,0.3,0.5,2017-04-03-10:24:42
603,106_CF_Mono,603,58,,Complete,C,M,S,M5,M5152.png,M5146.png,M5152.png,M5146.png,S,1,0.006159747,0.3,0.3,0.5,2017-04-03-10:24:44
603,106_CF_Mono,603,59,,Complete,C,M,D,F2,F2016.png,F2067.png,F2032.png,F2017.png,D,1,0.050617155,0.3,0.3,0.5,2017-04-03-10:24:46
603,106_CF_Mono,603,60,,Complete,C,M,D,M1,M1186.png,M1119.png,M1125.png,M1122.png,D,1,0.055483229,0.3,0.3,0.5,2017-04-03-10:24:49
603,106_CF_Mono,603,61,,Complete,C,A,S,M3,M3013.png,M3187.png,M3013.png,M3187.png,S,1,0.031326332,0.3,0.3,0.5,2017-04-03-10:24:51
603,106_CF_Mono,603,62,,Complete,I,M,S,F3,F3079.png,F3047.png,F3079.png,F3062.png,S,1,0.000618465,0.3,0.3,0.5,2017-04-03-10:24:53
603,106_CF_Mono,603,63,,Complete,I,A,S,M5,M5178.png,M5154.png,M5178.png,M5152.png,S,1,0.000693252,0.3,0.3,0.5,2017-04-03-10:24:55
603,106_CF_Mono,603,64,,Complete,C,M,D,F5,F5068.png,F5076.png,F5033.png,F5078.png,D,1,0.000323333,0.3,0.3,0.5,2017-04-03-10:24:58
603,106_CF_Mono,603,65,,Complete,I,A,S,F5,F5076.png,F5033.png,F5076.png,F5078.png,S,1,0.061356595,0.3,0.3,0.5,2017-04-03-10:25:00
603,106_CF_Mono,603,66,,Complete,I,M,D,M2,M2198.png,M2201.png,M2141.png,M2201.png,D,1,0.155895008,0.3,0.3,0.5,2017-04-03-10:25:02
603,106_CF_Mono,603,67,,Complete,C,M,S,F1,F1015.png,F1002.png,F1015.png,F1002.png,S,1,0.046361479,0.3,0.3,0.5,2017-04-03-10:25:05
603,106_CF_Mono,603,68,,Complete,I,A,S,M2,M2198.png,M2201.png,M2198.png,M2142.png,S,1,0.160493931,0.3,0.3,0.5,2017-04-03-10:25:07
603,106_CF_Mono,603,69,,Complete,I,A,S,F4,F4020.png,F4040.png,F4020.png,F4018.png,S,1,0.066075544,0.3,0.3,0.5,2017-04-03-10:25:09
603,106_CF_Mono,603,70,,Complete,I,M,S,M5,M5178.png,M5154.png,M5178.png,M5152.png,S,1,0.006285316,0.3,0.3,0.5,2017-04-03-10:25:11
603,106_CF_Mono,603,71,,Complete,C,A,S,F3,F3047.png,F3062.png,F3047.png,F3062.png,S,1,0.100854865,0.3,0.3,0.5,2017-04-03-10:25:14
603,106_CF_Mono,603,72,,Complete,I,M,S,M4,M4134.png,M4188.png,M4134.png,M4197.png,S,1,0.000590895,0.3,0.3,0.5,2017-04-03-10:25:16
603,106_CF_Mono,603,73,,Complete,I,A,S,M1,M1186.png,M1119.png,M1186.png,M1125.png,S,1,0.000598422,0.3,0.3,0.5,2017-04-03-10:25:18
603,106_CF_Mono,603,74,,Complete,I,A,D,F5,F5033.png,F5078.png,F5076.png,F5078.png,D,1,0.061292271,0.3,0.3,0.5,2017-04-03-10:25:21
603,106_CF_Mono,603,75,,Complete,C,A,S,M3,M3153.png,M3013.png,M3153.png,M3013.png,S,1,0.00057584,0.3,0.3,0.5,2017-04-03-10:25:23
603,106_CF_Mono,603,76,,Complete,C,A,D,M3,M3187.png,M3183.png,M3153.png,M3013.png,D,1,0.150603298,0.3,0.3,0.5,2017-04-03-10:25:25
603,106_CF_Mono,603,77,,Complete,I,M,S,M2,M2142.png,M2141.png,M2142.png,M2198.png,S,1,0.230422711,0.3,0.3,0.5,2017-04-03-10:25:28
603,106_CF_Mono,603,78,,Complete,C,A,D,F5,F5068.png,F5076.png,F5033.png,F5078.png,D,1,0.05625177,0.3,0.3,0.5,2017-04-03-10:25:30
603,106_CF_Mono,603,79,,Complete,C,M,S,F5,F5068.png,F5076.png,F5068.png,F5076.png,S,1,0.000584052,0.3,0.3,0.5,2017-04-03-10:25:32
603,106_CF_Mono,603,80,,Complete,I,A,D,M2,M2198.png,M2201.png,M2141.png,M2201.png,D,1,0.505616582,0.3,0.3,0.5,2017-04-03-10:25:35
603,106_CF_Mono,603,81,,Complete,I,A,D,M3,M3013.png,M3187.png,M3153.png,M3187.png,D,1,0.095657247,0.3,0.3,0.5,2017-04-03-10:25:49
603,106_CF_Mono,603,82,,Complete,C,M,S,M1,M1122.png,M1186.png,M1122.png,M1186.png,S,1,0.01084756,0.3,0.3,0.5,2017-04-03-10:25:51
603,106_CF_Mono,603,83,,Complete,C,M,S,M5,M5154.png,M5152.png,M5154.png,M5152.png,S,1,0.000573445,0.3,0.3,0.5,2017-04-03-10:25:53
603,106_CF_Mono,603,84,,Complete,I,M,D,M4,M4134.png,M4188.png,M4136.png,M4188.png,D,1,0.211199291,0.3,0.3,0.5,2017-04-03-10:25:55
603,106_CF_Mono,603,85,,Complete,I,A,D,M2,M2141.png,M2198.png,M2142.png,M2198.png,D,1,0.025782457,0.3,0.3,0.5,2017-04-03-10:25:58
603,106_CF_Mono,603,86,,Complete,C,A,D,M4,M4197.png,M4136.png,M4134.png,M4188.png,D,1,0.070507769,0.3,0.3,0.5,2017-04-03-10:26:00
603,106_CF_Mono,603,87,,Complete,C,A,D,F4,F4064.png,F4020.png,F4040.png,F4018.png,D,1,0.075814534,0.3,0.3,0.5,2017-04-03-10:26:02
603,106_CF_Mono,603,88,,Complete,C,A,S,M5,M5152.png,M5146.png,M5152.png,M5146.png,S,1,0.070539932,0.3,0.3,0.5,2017-04-03-10:26:05
603,106_CF_Mono,603,89,,Complete,C,M,S,F5,F5078.png,F5068.png,F5078.png,F5068.png,S,1,0.000577551,0.3,0.3,0.5,2017-04-03-10:26:07
603,106_CF_Mono,603,90,,Complete,C,M,S,F5,F5033.png,F5078.png,F5033.png,F5078.png,S,1,0.000728312,0.3,0.3,0.5,2017-04-03-10:26:09
603,106_CF_Mono,603,91,,Complete,C,A,D,M4,M4134.png,M4188.png,M4197.png,M4136.png,D,1,0.006388069,0.3,0.3,0.5,2017-04-03-10:26:11
603,106_CF_Mono,603,92,,Complete,C,M,S,M2,M2201.png,M2142.png,M2201.png,M2142.png,S,1,0.070947434,0.3,0.3,0.5,2017-04-03-10:26:14
603,106_CF_Mono,603,93,,Complete,C,A,S,M1,M1122.png,M1186.png,M1122.png,M1186.png,S,1,0.00057413,0.3,0.3,0.5,2017-04-03-10:26:16
603,106_CF_Mono,603,94,,Complete,C,M,D,F3,F3112.png,F3079.png,F3047.png,F3062.png,D,1,0.055944448,0.3,0.3,0.5,2017-04-03-10:26:18
603,106_CF_Mono,603,95,,Complete,I,M,S,M1,M1186.png,M1119.png,M1186.png,M1125.png,S,1,0.155486821,0.3,0.3,0.5,2017-04-03-10:26:20
603,106_CF_Mono,603,96,,Complete,C,A,D,M5,M5152.png,M5146.png,M5178.png,M5154.png,D,1,0.136337306,0.3,0.3,0.5,2017-04-03-10:26:23
603,106_CF_Mono,603,97,,Complete,C,M,S,F1,F1002.png,F1059.png,F1002.png,F1059.png,S,1,0.100871288,0.3,0.3,0.5,2017-04-03-10:26:25
603,106_CF_Mono,603,98,,Complete,C,A,D,M5,M5154.png,M5152.png,M5146.png,M5178.png,D,1,0.050603972,0.3,0.3,0.5,2017-04-03-10:26:27
603,106_CF_Mono,603,99,,Complete,C,A,S,M4,M4188.png,M4197.png,M4188.png,M4197.png,S,1,0.015454283,0.3,0.3,0.5,2017-04-03-10:26:30
603,106_CF_Mono,603,100,,Complete,C,M,S,M4,M4188.png,M4197.png,M4188.png,M4197.png,S,1,0.090602504,0.3,0.3,0.5,2017-04-03-10:26:32
603,106_CF_Mono,603,101,,Complete,C,M,D,M3,M3013.png,M3187.png,M3183.png,M3153.png,D,1,0.015785143,0.3,0.3,0.5,2017-04-03-10:26:34
603,106_CF_Mono,603,102,,Complete,I,A,S,F3,F3079.png,F3047.png,F3079.png,F3062.png,S,1,0.021061113,0.3,0.3,0.5,2017-04-03-10:26:36
603,106_CF_Mono,603,103,,Complete,I,M,D,M3,M3013.png,M3187.png,M3153.png,M3187.png,D,1,0.181251486,0.3,0.3,0.5,2017-04-03-10:26:39
603,106_CF_Mono,603,104,,Complete,I,M,D,F4,F4040.png,F4018.png,F4020.png,F4018.png,D,1,0.105710674,0.3,0.3,0.5,2017-04-03-10:26:41
603,106_CF_Mono,603,105,,Complete,C,A,S,M2,M2142.png,M2141.png,M2142.png,M2141.png,S,1,0.011207161,0.3,0.3,0.5,2017-04-03-10:26:43
603,106_CF_Mono,603,106,,Complete,C,M,S,M5,M5178.png,M5154.png,M5178.png,M5154.png,S,1,0.000598278,0.3,0.3,0.5,2017-04-03-10:26:46
603,106_CF_Mono,603,107,,Complete,C,M,S,M1,M1119.png,M1125.png,M1119.png,M1125.png,S,1,0.000636616,0.3,0.3,0.5,2017-04-03-10:26:48
603,106_CF_Mono,603,108,,Complete,I,A,D,F2,F2016.png,F2067.png,F2017.png,F2067.png,D,1,0.000614899,0.3,0.3,0.5,2017-04-03-10:26:50
603,106_CF_Mono,603,109,,Complete,C,M,D,F2,F2032.png,F2017.png,F2016.png,F2067.png,D,1,0.246225357,0.3,0.3,0.5,2017-04-03-10:26:53
603,106_CF_Mono,603,110,,Complete,I,A,S,M2,M2201.png,M2142.png,M2201.png,M2141.png,S,1,0.046361046,0.3,0.3,0.5,2017-04-03-10:26:55
603,106_CF_Mono,603,111,,Complete,C,M,D,M5,M5152.png,M5146.png,M5178.png,M5154.png,D,1,0.120528555,0.3,0.3,0.5,2017-04-03-10:26:57
603,106_CF_Mono,603,112,,Complete,C,M,S,M3,M3187.png,M3183.png,M3187.png,M3183.png,S,1,0.000578235,0.3,0.3,0.5,2017-04-03-10:26:59
603,106_CF_Mono,603,113,,Complete,I,M,D,F3,F3047.png,F3062.png,F3079.png,F3062.png,D,1,0.160565028,0.3,0.3,0.5,2017-04-03-10:27:02
603,106_CF_Mono,603,114,,Complete,I,A,S,M2,M2141.png,M2198.png,M2141.png,M2201.png,S,1,0.000655219,0.3,0.3,0.5,2017-04-03-10:27:04
603,106_CF_Mono,603,115,,Complete,C,M,S,M1,M1125.png,M1122.png,M1125.png,M1122.png,S,1,0.015917213,0.3,0.3,0.5,2017-04-03-10:27:06
603,106_CF_Mono,603,116,,Complete,C,A,D,M1,M1125.png,M1122.png,M1186.png,M1119.png,D,1,0.066144658,0.3,0.3,0.5,2017-04-03-10:27:09
603,106_CF_Mono,603,117,,Complete,I,M,D,M5,M5154.png,M5152.png,M5178.png,M5152.png,D,1,0.276276491,0.3,0.3,0.5,2017-04-03-10:27:11
603,106_CF_Mono,603,118,,Complete,I,M,S,F2,F2016.png,F2067.png,F2016.png,F2032.png,S,1,0.026044203,0.3,0.3,0.5,2017-04-03-10:27:13
603,106_CF_Mono,603,119,,Complete,I,M,S,M5,M5152.png,M5146.png,M5152.png,M5178.png,S,1,0.000596423,0.3,0.3,0.5,2017-04-03-10:27:15
603,106_CF_Mono,603,120,,Complete,I,A,D,M4,M4188.png,M4197.png,M4134.png,M4197.png,D,1,0.155770374,0.3,0.3,0.5,2017-04-03-10:27:18
603,106_CF_Mono,603,121,,Complete,C,M,D,F4,F4064.png,F4020.png,F4040.png,F4018.png,D,1,0.030872297,0.3,0.3,0.5,2017-04-03-10:27:31
603,106_CF_Mono,603,122,,Complete,C,M,D,M4,M4136.png,M4134.png,M4188.png,M4197.png,D,1,0.035371585,0.3,0.3,0.5,2017-04-03-10:27:34
603,106_CF_Mono,603,123,,Complete,I,A,D,F4,F4020.png,F4040.png,F4064.png,F4040.png,S,0,0.030841809,0.3,0.3,0.5,2017-04-03-10:27:36
603,106_CF_Mono,603,124,,Complete,C,A,S,F2,F2017.png,F2016.png,F2017.png,F2016.png,S,1,0.061342567,0.3,0.3,0.5,2017-04-03-10:27:38
603,106_CF_Mono,603,125,,Complete,C,A,S,F4,F4064.png,F4020.png,F4064.png,F4020.png,S,1,0.000605715,0.3,0.3,0.5,2017-04-03-10:27:40
603,106_CF_Mono,603,126,,Complete,I,A,S,F1,F1046.png,F1015.png,F1046.png,F1002.png,S,1,0.000589184,0.3,0.3,0.5,2017-04-03-10:27:43
603,106_CF_Mono,603,127,,Complete,C,A,D,F3,F3079.png,F3047.png,F3062.png,F3112.png,D,1,0.030623895,0.3,0.3,0.5,2017-04-03-10:27:45
603,106_CF_Mono,603,128,,Complete,C,M,D,F4,F4020.png,F4040.png,F4018.png,F4064.png,S,0,0.00057892,0.3,0.3,0.5,2017-04-03-10:27:47
603,106_CF_Mono,603,129,,Complete,C,A,S,F4,F4040.png,F4018.png,F4040.png,F4018.png,S,1,0.000782158,0.3,0.3,0.5,2017-04-03-10:27:49
603,106_CF_Mono,603,130,,Complete,C,M,S,M3,M3183.png,M3153.png,M3183.png,M3153.png,S,1,0.041090208,0.3,0.3,0.5,2017-04-03-10:27:52
603,106_CF_Mono,603,131,,Complete,I,M,D,F2,F2032.png,F2017.png,F2067.png,F2017.png,D,1,0.086273892,0.3,0.3,0.5,2017-04-03-10:27:54
603,106_CF_Mono,603,132,,Complete,C,A,S,M4,M4134.png,M4188.png,M4134.png,M4188.png,S,1,0.040827185,0.3,0.3,0.5,2017-04-03-10:27:56
603,106_CF_Mono,603,133,,Complete,C,A,D,F2,F2032.png,F2017.png,F2016.png,F2067.png,D,1,0.040954877,0.3,0.3,0.5,2017-04-03-10:27:59
603,106_CF_Mono,603,134,,Complete,I,A,D,F3,F3079.png,F3047.png,F3112.png,F3047.png,S,0,0.000654535,0.3,0.3,0.5,2017-04-03-10:28:01
603,106_CF_Mono,603,135,,Complete,C,A,D,F4,F4040.png,F4018.png,F4064.png,F4020.png,D,1,0.156034605,0.3,0.3,0.5,2017-04-03-10:28:03
603,106_CF_Mono,603,136,,Complete,I,A,S,F1,F1015.png,F1002.png,F1015.png,F1059.png,S,1,0.005503159,0.3,0.3,0.5,2017-04-03-10:28:05
603,106_CF_Mono,603,137,,Complete,I,M,S,F5,F5033.png,F5078.png,F5033.png,F5068.png,S,1,0.000576525,0.3,0.3,0.5,2017-04-03-10:28:08
603,106_CF_Mono,603,138,,Complete,C,A,S,M1,M1186.png,M1119.png,M1186.png,M1119.png,S,1,0.000573787,0.3,0.3,0.5,2017-04-03-10:28:10
603,106_CF_Mono,603,139,,Complete,I,A,D,M1,M1122.png,M1186.png,M1125.png,M1186.png,S,0,0.000756872,0.3,0.3,0.5,2017-04-03-10:28:12
603,106_CF_Mono,603,140,,Complete,C,A,D,M4,M4188.png,M4197.png,M4136.png,M4134.png,D,1,0.085848025,0.3,0.3,0.5,2017-04-03-10:28:14
603,106_CF_Mono,603,141,,Complete,I,M,S,F2,F2017.png,F2016.png,F2017.png,F2067.png,S,1,0.000577551,0.3,0.3,0.5,2017-04-03-10:28:17
603,106_CF_Mono,603,142,,Complete,C,M,D,M3,M3183.png,M3153.png,M3013.png,M3187.png,S,0,0.041376679,0.3,0.3,0.5,2017-04-03-10:28:19
603,106_CF_Mono,603,143,,Complete,I,M,D,F1,F1015.png,F1002.png,F1046.png,F1002.png,D,1,0.045412694,0.3,0.3,0.5,2017-04-03-10:28:21
603,106_CF_Mono,603,144,,Complete,I,A,S,M5,M5152.png,M5146.png,M5152.png,M5178.png,S,1,0.285605531,0.3,0.3,0.5,2017-04-03-10:28:24
603,106_CF_Mono,603,145,,Complete,I,M,D,F2,F2017.png,F2016.png,F2032.png,F2016.png,D,1,0.076106731,0.3,0.3,0.5,2017-04-03-10:28:26
603,106_CF_Mono,603,146,,Complete,I,A,S,M4,M4136.png,M4134.png,M4136.png,M4188.png,S,1,0.000590553,0.3,0.3,0.5,2017-04-03-10:28:28
603,106_CF_Mono,603,147,,Complete,C,A,D,F5,F5033.png,F5078.png,F5068.png,F5076.png,D,1,0.17593651,0.3,0.3,0.5,2017-04-03-10:28:31
603,106_CF_Mono,603,148,,Complete,I,A,D,M5,M5178.png,M5154.png,M5146.png,M5154.png,D,1,0.080620731,0.3,0.3,0.5,2017-04-03-10:28:33
603,106_CF_Mono,603,149,,Complete,C,A,S,M2,M2201.png,M2142.png,M2201.png,M2142.png,S,1,0.021407045,0.3,0.3,0.5,2017-04-03-10:28:35
603,106_CF_Mono,603,150,,Complete,I,M,S,M4,M4188.png,M4197.png,M4188.png,M4136.png,S,1,0.000741297,0.3,0.3,0.5,2017-04-03-10:28:37
603,106_CF_Mono,603,151,,Complete,I,A,D,M5,M5154.png,M5152.png,M5178.png,M5152.png,D,1,0.096446083,0.3,0.3,0.5,2017-04-03-10:28:40
603,106_CF_Mono,603,152,,Complete,I,A,S,F3,F3047.png,F3062.png,F3047.png,F3112.png,S,1,0.180603992,0.3,0.3,0.5,2017-04-03-10:28:42
603,106_CF_Mono,603,153,,Complete,C,M,D,F1,F1059.png,F1046.png,F1015.png,F1002.png,D,1,0.0411796,0.3,0.3,0.5,2017-04-03-10:28:44
603,106_CF_Mono,603,154,,Complete,I,A,S,F2,F2032.png,F2017.png,F2032.png,F2016.png,S,1,0.106283435,0.3,0.3,0.5,2017-04-03-10:28:47
603,106_CF_Mono,603,155,,Complete,I,A,S,F3,F3112.png,F3079.png,F3112.png,F3047.png,S,1,0.000599449,0.3,0.3,0.5,2017-04-03-10:28:49
603,106_CF_Mono,603,156,,Complete,I,A,D,M1,M1186.png,M1119.png,M1122.png,M1119.png,D,1,0.025697946,0.3,0.3,0.5,2017-04-03-10:28:51
603,106_CF_Mono,603,157,,Complete,I,M,D,M2,M2141.png,M2198.png,M2142.png,M2198.png,D,1,0.095529966,0.3,0.3,0.5,2017-04-03-10:28:53
603,106_CF_Mono,603,158,,Complete,I,M,S,M4,M4197.png,M4136.png,M4197.png,M4134.png,S,1,0.000576867,0.3,0.3,0.5,2017-04-03-10:28:56
603,106_CF_Mono,603,159,,Complete,C,M,S,F3,F3112.png,F3079.png,F3112.png,F3079.png,S,1,0.000575156,0.3,0.3,0.5,2017-04-03-10:28:58
603,106_CF_Mono,603,160,,Complete,I,A,D,M5,M5146.png,M5178.png,M5152.png,M5178.png,D,1,0.095383526,0.3,0.3,0.5,2017-04-03-10:29:00
603,106_CF_Mono,603,161,,Complete,C,A,D,M3,M3153.png,M3013.png,M3187.png,M3183.png,D,1,0.005799804,0.3,0.3,0.5,2017-04-03-10:29:15
603,106_CF_Mono,603,162,,Complete,C,M,S,M1,M1186.png,M1119.png,M1186.png,M1119.png,S,1,0.076161133,0.3,0.3,0.5,2017-04-03-10:29:17
603,106_CF_Mono,603,163,,Complete,I,M,S,F5,F5076.png,F5033.png,F5076.png,F5078.png,S,1,0.206059946,0.3,0.3,0.5,2017-04-03-10:29:19
603,106_CF_Mono,603,164,,Complete,I,M,D,M2,M2201.png,M2142.png,M2198.png,M2142.png,D,1,0.000598818,0.3,0.3,0.5,2017-04-03-10:29:22
603,106_CF_Mono,603,165,,Complete,I,M,D,M3,M3187.png,M3183.png,M3013.png,M3183.png,D,1,0.151366889,0.3,0.3,0.5,2017-04-03-10:29:24
603,106_CF_Mono,603,166,,Complete,I,M,D,F1,F1002.png,F1059.png,F1015.png,F1059.png,S,0,0.156172348,0.3,0.3,0.5,2017-04-03-10:29:26
603,106_CF_Mono,603,167,,Complete,C,A,S,F1,F1002.png,F1059.png,F1002.png,F1059.png,S,1,0.085715361,0.3,0.3,0.5,2017-04-03-10:29:29
603,106_CF_Mono,603,168,,Complete,C,M,S,F2,F2016.png,F2067.png,F2016.png,F2067.png,S,1,0.196272263,0.3,0.3,0.5,2017-04-03-10:29:31
603,106_CF_Mono,603,169,,Complete,C,M,S,M4,M4134.png,M4188.png,M4134.png,M4188.png,S,1,0.25041905,0.3,0.3,0.5,2017-04-03-10:29:34
603,106_CF_Mono,603,170,,Complete,C,M,D,F1,F1015.png,F1002.png,F1059.png,F1046.png,D,1,0.116299386,0.3,0.3,0.5,2017-04-03-10:29:36
603,106_CF_Mono,603,171,,Complete,C,A,S,F5,F5078.png,F5068.png,F5078.png,F5068.png,S,1,0.030445293,0.3,0.3,0.5,2017-04-03-10:29:38
603,106_CF_Mono,603,172,,Complete,C,A,D,M2,M2141.png,M2198.png,M2201.png,M2142.png,D,1,0.141323186,0.3,0.3,0.5,2017-04-03-10:29:41
603,106_CF_Mono,603,173,,Complete,I,A,D,F1,F1046.png,F1015.png,F1059.png,F1015.png,S,0,0.085434113,0.3,0.3,0.5,2017-04-03-10:29:43
603,106_CF_Mono,603,174,,Complete,I,M,D,M4,M4188.png,M4197.png,M4134.png,M4197.png,D,1,0.179996818,0.3,0.3,0.5,2017-04-03-10:29:45
603,106_CF_Mono,603,175,,Complete,I,A,D,M2,M2201.png,M2142.png,M2198.png,M2142.png,D,1,0.090749431,0.3,0.3,0.5,2017-04-03-10:29:48
603,106_CF_Mono,603,176,,Complete,I,M,D,F3,F3079.png,F3047.png,F3112.png,F3047.png,S,0,0.20597738,0.3,0.3,0.5,2017-04-03-10:29:50
603,106_CF_Mono,603,177,,Complete,C,M,D,M4,M4188.png,M4197.png,M4136.png,M4134.png,D,1,0.025442359,0.3,0.3,0.5,2017-04-03-10:29:52
603,106_CF_Mono,603,178,,Complete,C,M,S,M4,M4197.png,M4136.png,M4197.png,M4136.png,S,1,0.066348741,0.3,0.3,0.5,2017-04-03-10:29:55
603,106_CF_Mono,603,179,,Complete,I,M,S,F1,F1046.png,F1015.png,F1046.png,F1002.png,S,1,0.11651323,0.3,0.3,0.5,2017-04-03-10:29:57
603,106_CF_Mono,603,180,,Complete,C,M,D,M2,M2201.png,M2142.png,M2141.png,M2198.png,S,0,0.070630944,0.3,0.3,0.5,2017-04-03-10:29:59
603,106_CF_Mono,603,181,,Complete,I,M,D,M2,M2142.png,M2141.png,M2201.png,M2141.png,D,1,0.300922268,0.3,0.3,0.5,2017-04-03-10:30:02
603,106_CF_Mono,603,182,,Complete,I,M,S,F1,F1015.png,F1002.png,F1015.png,F1059.png,S,1,0.070635734,0.3,0.3,0.5,2017-04-03-10:30:04
603,106_CF_Mono,603,183,,Complete,C,A,S,F1,F1015.png,F1002.png,F1015.png,F1002.png,S,1,0.000720282,0.3,0.3,0.5,2017-04-03-10:30:06
603,106_CF_Mono,603,184,,Complete,C,M,S,F1,F1046.png,F1015.png,F1046.png,F1015.png,S,1,0.080679923,0.3,0.3,0.5,2017-04-03-10:30:09
603,106_CF_Mono,603,185,,Complete,C,M,S,F3,F3062.png,F3112.png,F3062.png,F3112.png,S,1,0.000600817,0.3,0.3,0.5,2017-04-03-10:30:11
603,106_CF_Mono,603,186,,Complete,C,A,D,M3,M3013.png,M3187.png,M3183.png,M3153.png,S,0,0.000576525,0.3,0.3,0.5,2017-04-03-10:30:13
603,106_CF_Mono,603,187,,Complete,I,M,S,M5,M5154.png,M5152.png,M5154.png,M5146.png,S,1,0.000657272,0.3,0.3,0.5,2017-04-03-10:30:15
603,106_CF_Mono,603,188,,Complete,I,A,D,F3,F3062.png,F3112.png,F3047.png,F3112.png,S,0,0.000605265,0.3,0.3,0.5,2017-04-03-10:30:17
603,106_CF_Mono,603,189,,Complete,I,A,S,F5,F5033.png,F5078.png,F5033.png,F5068.png,S,1,0.000573787,0.3,0.3,0.5,2017-04-03-10:30:20
603,106_CF_Mono,603,190,,Complete,C,A,S,M5,M5146.png,M5178.png,M5146.png,M5178.png,S,1,0.00057584,0.3,0.3,0.5,2017-04-03-10:30:22
603,106_CF_Mono,603,191,,Complete,I,A,S,F2,F2067.png,F2032.png,F2067.png,F2017.png,S,1,0.000673353,0.3,0.3,0.5,2017-04-03-10:30:24
603,106_CF_Mono,603,192,,Complete,I,M,S,M3,M3183.png,M3153.png,M3183.png,M3013.png,S,1,0.000573103,0.3,0.3,0.5,2017-04-03-10:30:26
603,106_CF_Mono,603,193,,Complete,C,A,D,M5,M5146.png,M5178.png,M5154.png,M5152.png,D,1,0.075242457,0.3,0.3,0.5,2017-04-03-10:30:29
603,106_CF_Mono,603,194,,Complete,C,M,D,M5,M5146.png,M5178.png,M5154.png,M5152.png,D,1,0.116074774,0.3,0.3,0.5,2017-04-03-10:30:31
603,106_CF_Mono,603,195,,Complete,C,A,S,M4,M4136.png,M4134.png,M4136.png,M4134.png,S,1,0.041377706,0.3,0.3,0.5,2017-04-03-10:30:33
603,106_CF_Mono,603,196,,Complete,C,A,D,F1,F1002.png,F1059.png,F1046.png,F1015.png,D,1,0.09043431,0.3,0.3,0.5,2017-04-03-10:30:36
603,106_CF_Mono,603,197,,Complete,C,M,D,M5,M5178.png,M5154.png,M5152.png,M5146.png,D,1,0.110685209,0.3,0.3,0.5,2017-04-03-10:30:38
603,106_CF_Mono,603,198,,Complete,I,A,S,F5,F5068.png,F5076.png,F5068.png,F5033.png,S,1,0.016111555,0.3,0.3,0.5,2017-04-03-10:30:40
603,106_CF_Mono,603,199,,Complete,I,M,S,F4,F4064.png,F4020.png,F4064.png,F4040.png,S,1,0.000755829,0.3,0.3,0.5,2017-04-03-10:30:42
603,106_CF_Mono,603,200,,Complete,I,M,S,M3,M3153.png,M3013.png,M3153.png,M3187.png,S,1,0.081102208,0.3,0.3,0.5,2017-04-03-10:30:45
603,106_CF_Mono,603,201,,Complete,C,M,D,M4,M4197.png,M4136.png,M4134.png,M4188.png,D,1,0.055458594,0.3,0.3,0.5,2017-04-03-10:30:59
603,106_CF_Mono,603,202,,Complete,I,A,S,F4,F4040.png,F4018.png,F4040.png,F4064.png,S,1,0.041300722,0.3,0.3,0.5,2017-04-03-10:31:01
603,106_CF_Mono,603,203,,Complete,I,A,S,F1,F1002.png,F1059.png,F1002.png,F1046.png,S,1,0.000652985,0.3,0.3,0.5,2017-04-03-10:31:03
603,106_CF_Mono,603,204,,Complete,C,M,D,F2,F2067.png,F2032.png,F2017.png,F2016.png,D,1,0.000656605,0.3,0.3,0.5,2017-04-03-10:31:06
603,106_CF_Mono,603,205,,Complete,C,M,D,F3,F3079.png,F3047.png,F3062.png,F3112.png,D,1,0.191304571,0.3,0.3,0.5,2017-04-03-10:31:08
603,106_CF_Mono,603,206,,Complete,I,A,S,F2,F2017.png,F2016.png,F2017.png,F2067.png,S,1,0.00543815,0.3,0.3,0.5,2017-04-03-10:31:10
603,106_CF_Mono,603,207,,Complete,C,A,S,F4,F4018.png,F4064.png,F4018.png,F4064.png,S,1,0.000589526,0.3,0.3,0.5,2017-04-03-10:31:12
603,106_CF_Mono,603,208,,Complete,C,A,S,F5,F5076.png,F5033.png,F5076.png,F5033.png,S,1,0.000587131,0.3,0.3,0.5,2017-04-03-10:31:15
603,106_CF_Mono,603,209,,Complete,I,A,S,M4,M4134.png,M4188.png,M4134.png,M4197.png,S,1,0.000574814,0.3,0.3,0.5,2017-04-03-10:31:17
603,106_CF_Mono,603,210,,Complete,C,M,D,F4,F4018.png,F4064.png,F4020.png,F4040.png,S,0,0.025860809,0.3,0.3,0.5,2017-04-03-10:31:19
603,106_CF_Mono,603,211,,Complete,C,M,S,F4,F4040.png,F4018.png,F4040.png,F4018.png,S,1,0.000692856,0.3,0.3,0.5,2017-04-03-10:31:21
603,106_CF_Mono,603,212,,Complete,I,A,D,M1,M1119.png,M1125.png,M1186.png,M1125.png,S,0,0.00550179,0.3,0.3,0.5,2017-04-03-10:31:24
603,106_CF_Mono,603,213,,Complete,C,M,S,F2,F2067.png,F2032.png,F2067.png,F2032.png,S,1,0.000575156,0.3,0.3,0.5,2017-04-03-10:31:26
603,106_CF_Mono,603,214,,Complete,I,A,D,M4,M4136.png,M4134.png,M4197.png,M4134.png,D,1,0.09616192,0.3,0.3,0.5,2017-04-03-10:31:28
603,106_CF_Mono,603,215,,Complete,I,M,D,F2,F2016.png,F2067.png,F2017.png,F2067.png,D,1,0.141422356,0.3,0.3,0.5,2017-04-03-10:31:30
603,106_CF_Mono,603,216,,Complete,I,A,D,F5,F5078.png,F5068.png,F5033.png,F5068.png,S,0,0.046441543,0.3,0.3,0.5,2017-04-03-10:31:33
603,106_CF_Mono,603,217,,Complete,C,M,D,F4,F4040.png,F4018.png,F4064.png,F4020.png,D,1,0.200781473,0.3,0.3,0.5,2017-04-03-10:31:35
603,106_CF_Mono,603,218,,Complete,C,A,S,M3,M3183.png,M3153.png,M3183.png,M3153.png,S,1,0.090463735,0.3,0.3,0.5,2017-04-03-10:31:37
603,106_CF_Mono,603,219,,Complete,C,A,D,M3,M3183.png,M3153.png,M3013.png,M3187.png,D,1,0.10073169,0.3,0.3,0.5,2017-04-03-10:31:40
603,106_CF_Mono,603,220,,Complete,I,M,D,F3,F3062.png,F3112.png,F3047.png,F3112.png,D,1,0.420523936,0.3,0.3,0.5,2017-04-03-10:31:42
603,106_CF_Mono,603,221,,Complete,C,M,S,F2,F2017.png,F2016.png,F2017.png,F2016.png,S,1,0.180624323,0.3,0.3,0.5,2017-04-03-10:31:45
603,106_CF_Mono,603,222,,Complete,C,A,D,F2,F2067.png,F2032.png,F2017.png,F2016.png,D,1,0.090501371,0.3,0.3,0.5,2017-04-03-10:31:47
603,106_CF_Mono,603,223,,Complete,C,M,D,M2,M2142.png,M2141.png,M2198.png,M2201.png,D,1,0.070622048,0.3,0.3,0.5,2017-04-03-10:31:49
603,106_CF_Mono,603,224,,Complete,I,A,D,F2,F2067.png,F2032.png,F2016.png,F2032.png,S,0,0.020840768,0.3,0.3,0.5,2017-04-03-10:31:52
603,106_CF_Mono,603,225,,Complete,I,M,D,F5,F5033.png,F5078.png,F5076.png,F5078.png,D,1,0.095970657,0.3,0.3,0.5,2017-04-03-10:31:54
603,106_CF_Mono,603,226,,Complete,I,A,S,M5,M5154.png,M5152.png,M5154.png,M5146.png,S,1,0.156207391,0.3,0.3,0.5,2017-04-03-10:31:56
603,106_CF_Mono,603,227,,Complete,C,M,D,F3,F3047.png,F3062.png,F3112.png,F3079.png,D,1,0.155704087,0.3,0.3,0.5,2017-04-03-10:31:59
603,106_CF_Mono,603,228,,Complete,I,M,S,F2,F2032.png,F2017.png,F2032.png,F2016.png,S,1,0.061172176,0.3,0.3,0.5,2017-04-03-10:32:01
603,106_CF_Mono,603,229,,Complete,I,M,D,M1,M1119.png,M1125.png,M1186.png,M1125.png,D,1,0.145677348,0.3,0.3,0.5,2017-04-03-10:32:03
603,106_CF_Mono,603,230,,Complete,I,A,D,F1,F1059.png,F1046.png,F1002.png,F1046.png,D,1,0.090839759,0.3,0.3,0.5,2017-04-03-10:32:06
603,106_CF_Mono,603,231,,Complete,I,M,S,F3,F3047.png,F3062.png,F3047.png,F3112.png,S,1,0.116126781,0.3,0.3,0.5,2017-04-03-10:32:08
603,106_CF_Mono,603,232,,Complete,I,M,S,F5,F5068.png,F5076.png,F5068.png,F5033.png,S,1,0.096174579,0.3,0.3,0.5,2017-04-03-10:32:10
603,106_CF_Mono,603,233,,Complete,C,A,S,F3,F3062.png,F3112.png,F3062.png,F3112.png,S,1,0.011339573,0.3,0.3,0.5,2017-04-03-10:32:13
603,106_CF_Mono,603,234,,Complete,I,A,S,M3,M3187.png,M3183.png,M3187.png,M3153.png,S,1,0.070918351,0.3,0.3,0.5,2017-04-03-10:32:15
603,106_CF_Mono,603,235,,Complete,C,A,S,F1,F1046.png,F1015.png,F1046.png,F1015.png,S,1,0.000711242,0.3,0.3,0.5,2017-04-03-10:32:17
603,106_CF_Mono,603,236,,Complete,I,M,S,F3,F3062.png,F3112.png,F3062.png,F3079.png,S,1,0.115907569,0.3,0.3,0.5,2017-04-03-10:32:20
603,106_CF_Mono,603,237,,Complete,I,A,S,F4,F4018.png,F4064.png,F4018.png,F4020.png,S,1,0.000599449,0.3,0.3,0.5,2017-04-03-10:32:22
603,106_CF_Mono,603,238,,Complete,C,A,D,M2,M2201.png,M2142.png,M2141.png,M2198.png,D,1,0.010944046,0.3,0.3,0.5,2017-04-03-10:32:24
603,106_CF_Mono,603,239,,Complete,C,A,S,M1,M1119.png,M1125.png,M1119.png,M1125.png,S,1,0.060409574,0.3,0.3,0.5,2017-04-03-10:32:26
603,106_CF_Mono,603,240,,Complete,I,A,S,M1,M1125.png,M1122.png,M1125.png,M1186.png,S,1,0.000643928,0.3,0.3,0.5,2017-04-03-10:32:28
603,106_CF_Mono,603,241,,Complete,I,M,S,F2,F2067.png,F2032.png,F2067.png,F2017.png,S,1,0.125585207,0.3,0.3,0.5,2017-04-03-10:32:44
603,106_CF_Mono,603,242,,Complete,I,A,S,F4,F4064.png,F4020.png,F4064.png,F4040.png,S,1,0.061343845,0.3,0.3,0.5,2017-04-03-10:32:47
603,106_CF_Mono,603,243,,Complete,I,A,S,M5,M5146.png,M5178.png,M5146.png,M5154.png,S,1,0.000602528,0.3,0.3,0.5,2017-04-03-10:32:49
603,106_CF_Mono,603,244,,Complete,I,M,D,F1,F1046.png,F1015.png,F1059.png,F1015.png,D,1,0.145751937,0.3,0.3,0.5,2017-04-03-10:32:51
603,106_CF_Mono,603,245,,Complete,I,A,D,M4,M4134.png,M4188.png,M4136.png,M4188.png,D,1,0.255827882,0.3,0.3,0.5,2017-04-03-10:32:54
603,106_CF_Mono,603,246,,Complete,C,M,D,M5,M5154.png,M5152.png,M5146.png,M5178.png,D,1,0.060358198,0.3,0.3,0.5,2017-04-03-10:32:56
603,106_CF_Mono,603,247,,Complete,C,A,S,M1,M1125.png,M1122.png,M1125.png,M1122.png,S,1,0.090880817,0.3,0.3,0.5,2017-04-03-10:32:58
603,106_CF_Mono,603,248,,Complete,C,A,D,M1,M1122.png,M1186.png,M1119.png,M1125.png,D,1,0.125871929,0.3,0.3,0.5,2017-04-03-10:33:01
603,106_CF_Mono,603,249,,Complete,I,M,D,F4,F4020.png,F4040.png,F4064.png,F4040.png,D,1,0.176043604,0.3,0.3,0.5,2017-04-03-10:33:03
603,106_CF_Mono,603,250,,Complete,C,A,D,F2,F2016.png,F2067.png,F2032.png,F2017.png,D,1,0.110698318,0.3,0.3,0.5,2017-04-03-10:33:05
603,106_CF_Mono,603,251,,Complete,C,M,D,M2,M2141.png,M2198.png,M2201.png,M2142.png,D,1,0.051218999,0.3,0.3,0.5,2017-04-03-10:33:08
603,106_CF_Mono,603,252,,Complete,C,A,S,M5,M5178.png,M5154.png,M5178.png,M5154.png,S,1,0.035972744,0.3,0.3,0.5,2017-04-03-10:33:10
603,106_CF_Mono,603,253,,Complete,C,A,D,F3,F3062.png,F3112.png,F3079.png,F3047.png,D,1,0.100650943,0.3,0.3,0.5,2017-04-03-10:33:12
603,106_CF_Mono,603,254,,Complete,C,M,D,M3,M3187.png,M3183.png,M3153.png,M3013.png,D,1,0.270409428,0.3,0.3,0.5,2017-04-03-10:33:15
603,106_CF_Mono,603,255,,Complete,I,A,D,M1,M1125.png,M1122.png,M1119.png,M1122.png,D,1,0.065586519,0.3,0.3,0.5,2017-04-03-10:33:17
603,106_CF_Mono,603,256,,Complete,C,A,S,F4,F4020.png,F4040.png,F4020.png,F4040.png,S,1,0.34491572,0.3,0.3,0.5,2017-04-03-10:33:20
603,106_CF_Mono,603,257,,Complete,I,M,D,M3,M3153.png,M3013.png,M3183.png,M3013.png,D,1,0.070911199,0.3,0.3,0.5,2017-04-03-10:33:22
603,106_CF_Mono,603,258,,Complete,C,M,D,M1,M1119.png,M1125.png,M1122.png,M1186.png,D,1,0.116139782,0.3,0.3,0.5,2017-04-03-10:33:24
603,106_CF_Mono,603,259,,Complete,C,M,D,M4,M4134.png,M4188.png,M4197.png,M4136.png,D,1,0.051283323,0.3,0.3,0.5,2017-04-03-10:33:26
603,106_CF_Mono,603,260,,Complete,I,A,S,M2,M2142.png,M2141.png,M2142.png,M2198.png,S,1,0.146164229,0.3,0.3,0.5,2017-04-03-10:33:29
603,106_CF_Mono,603,261,,Complete,I,A,D,M2,M2142.png,M2141.png,M2201.png,M2141.png,D,1,0.106318676,0.3,0.3,0.5,2017-04-03-10:33:31
603,106_CF_Mono,603,262,,Complete,I,A,S,F1,F1059.png,F1046.png,F1059.png,F1015.png,S,1,0.022864592,0.3,0.3,0.5,2017-04-03-10:33:33
603,106_CF_Mono,603,263,,Complete,I,A,S,M1,M1119.png,M1125.png,M1119.png,M1122.png,S,1,0.090653628,0.3,0.3,0.5,2017-04-03-10:33:36
603,106_CF_Mono,603,264,,Complete,C,M,S,F2,F2032.png,F2017.png,F2032.png,F2017.png,S,1,0.190790318,0.3,0.3,0.5,2017-04-03-10:33:38
603,106_CF_Mono,603,265,,Complete,I,M,S,M2,M2141.png,M2198.png,M2141.png,M2201.png,S,1,0.000576867,0.3,0.3,0.5,2017-04-03-10:33:40
603,106_CF_Mono,603,266,,Complete,C,M,S,F1,F1059.png,F1046.png,F1059.png,F1046.png,S,1,0.205819991,0.3,0.3,0.5,2017-04-03-10:33:43
603,106_CF_Mono,603,267,,Complete,I,M,S,F1,F1002.png,F1059.png,F1002.png,F1046.png,S,1,0.10629541,0.3,0.3,0.5,2017-04-03-10:33:45
603,106_CF_Mono,603,268,,Complete,I,A,S,F2,F2016.png,F2067.png,F2016.png,F2032.png,S,1,0.090767565,0.3,0.3,0.5,2017-04-03-10:33:47
603,106_CF_Mono,603,269,,Complete,C,A,S,F3,F3112.png,F3079.png,F3112.png,F3079.png,S,1,0.000573445,0.3,0.3,0.5,2017-04-03-10:33:50
603,106_CF_Mono,603,270,,Complete,C,M,S,M2,M2142.png,M2141.png,M2142.png,M2141.png,S,1,0.000577209,0.3,0.3,0.5,2017-04-03-10:33:52
603,106_CF_Mono,603,271,,Complete,C,A,S,M3,M3187.png,M3183.png,M3187.png,M3183.png,S,1,0.000577893,0.3,0.3,0.5,2017-04-03-10:33:54
603,106_CF_Mono,603,272,,Complete,I,A,D,F1,F1002.png,F1059.png,F1015.png,F1059.png,D,1,0.100480119,0.3,0.3,0.5,2017-04-03-10:33:56
603,106_CF_Mono,603,273,,Complete,C,M,S,M3,M3153.png,M3013.png,M3153.png,M3013.png,S,1,0.006421835,0.3,0.3,0.5,2017-04-03-10:33:59
603,106_CF_Mono,603,274,,Complete,I,M,D,M4,M4136.png,M4134.png,M4197.png,M4134.png,D,1,0.051017472,0.3,0.3,0.5,2017-04-03-10:34:01
603,106_CF_Mono,603,275,,Complete,C,M,D,F5,F5033.png,F5078.png,F5068.png,F5076.png,D,1,0.160770661,0.3,0.3,0.5,2017-04-03-10:34:03
603,106_CF_Mono,603,276,,Complete,I,M,D,F5,F5076.png,F5033.png,F5068.png,F5033.png,D,1,0.116298269,0.3,0.3,0.5,2017-04-03-10:34:06
603,106_CF_Mono,603,277,,Complete,C,A,D,M2,M2198.png,M2201.png,M2142.png,M2141.png,D,1,0.091523034,0.3,0.3,0.5,2017-04-03-10:34:08
603,106_CF_Mono,603,278,,Complete,I,A,D,F2,F2032.png,F2017.png,F2067.png,F2017.png,D,1,0.085520677,0.3,0.3,0.5,2017-04-03-10:34:10
603,106_CF_Mono,603,279,,Complete,C,A,D,F4,F4020.png,F4040.png,F4018.png,F4064.png,S,0,0.08105546,0.3,0.3,0.5,2017-04-03-10:34:13
603,106_CF_Mono,603,280,,Complete,C,M,S,F5,F5076.png,F5033.png,F5076.png,F5033.png,S,1,0.040625658,0.3,0.3,0.5,2017-04-03-10:34:15
603,106_CF_Mono,603,281,,Complete,C,A,D,M4,M4136.png,M4134.png,M4188.png,M4197.png,D,1,0.396194937,0.3,0.3,0.5,2017-04-03-10:34:31
603,106_CF_Mono,603,282,,Complete,C,M,S,F4,F4018.png,F4064.png,F4018.png,F4064.png,S,1,0.136308223,0.3,0.3,0.5,2017-04-03-10:34:33
603,106_CF_Mono,603,283,,Complete,I,A,D,F5,F5076.png,F5033.png,F5068.png,F5033.png,D,1,0.065762653,0.3,0.3,0.5,2017-04-03-10:34:36
603,106_CF_Mono,603,284,,Complete,I,M,S,M1,M1125.png,M1122.png,M1125.png,M1186.png,S,1,0.006015017,0.3,0.3,0.5,2017-04-03-10:34:38
603,106_CF_Mono,603,285,,Complete,C,A,S,M5,M5154.png,M5152.png,M5154.png,M5152.png,S,1,0.060474097,0.3,0.3,0.5,2017-04-03-10:34:40
603,106_CF_Mono,603,286,,Complete,C,M,S,F4,F4020.png,F4040.png,F4020.png,F4040.png,S,1,0.000575498,0.3,0.3,0.5,2017-04-03-10:34:42
603,106_CF_Mono,603,287,,Complete,C,A,D,F5,F5076.png,F5033.png,F5078.png,F5068.png,D,1,0.045823725,0.3,0.3,0.5,2017-04-03-10:34:45
603,106_CF_Mono,603,288,,Complete,I,M,S,F4,F4040.png,F4018.png,F4040.png,F4064.png,S,1,0.000574472,0.3,0.3,0.5,2017-04-03-10:34:47
603,106_CF_Mono,603,289,,Complete,I,M,D,M1,M1186.png,M1119.png,M1122.png,M1119.png,D,1,0.105870116,0.3,0.3,0.5,2017-04-03-10:34:49
603,106_CF_Mono,603,290,,Complete,C,M,D,M2,M2198.png,M2201.png,M2142.png,M2141.png,D,1,0.325422685,0.3,0.3,0.5,2017-04-03-10:34:52
603,106_CF_Mono,603,291,,Complete,I,M,S,M3,M3187.png,M3183.png,M3187.png,M3153.png,S,1,0.07118865,0.3,0.3,0.5,2017-04-03-10:34:54
603,106_CF_Mono,603,292,,Complete,I,M,D,F1,F1059.png,F1046.png,F1002.png,F1046.png,D,1,0.115533833,0.3,0.3,0.5,2017-04-03-10:34:56
603,106_CF_Mono,603,293,,Complete,C,M,S,M2,M2141.png,M2198.png,M2141.png,M2198.png,S,1,0.05556295,0.3,0.3,0.5,2017-04-03-10:34:59
603,106_CF_Mono,603,294,,Complete,I,M,S,M2,M2201.png,M2142.png,M2201.png,M2141.png,S,1,0.080400727,0.3,0.3,0.5,2017-04-03-10:35:01
603,106_CF_Mono,603,295,,Complete,I,A,D,M3,M3153.png,M3013.png,M3183.png,M3013.png,D,1,0.141346399,0.3,0.3,0.5,2017-04-03-10:35:03
603,106_CF_Mono,603,296,,Complete,C,A,S,M2,M2198.png,M2201.png,M2198.png,M2201.png,S,1,0.181379109,0.3,0.3,0.5,2017-04-03-10:35:06
603,106_CF_Mono,603,297,,Complete,I,A,S,M4,M4197.png,M4136.png,M4197.png,M4134.png,S,1,0.115870509,0.3,0.3,0.5,2017-04-03-10:35:08
603,106_CF_Mono,603,298,,Complete,I,M,S,M4,M4136.png,M4134.png,M4136.png,M4188.png,S,1,0.041102958,0.3,0.3,0.5,2017-04-03-10:35:10
603,106_CF_Mono,603,299,,Complete,C,M,D,M1,M1125.png,M1122.png,M1186.png,M1119.png,D,1,0.091368382,0.3,0.3,0.5,2017-04-03-10:35:13
603,106_CF_Mono,603,300,,Complete,I,M,S,F4,F4020.png,F4040.png,F4020.png,F4018.png,S,1,0.055447303,0.3,0.3,0.5,2017-04-03-10:35:15
603,106_CF_Mono,603,301,,Complete,I,M,S,M5,M5146.png,M5178.png,M5146.png,M5154.png,S,1,0.076237432,0.3,0.3,0.5,2017-04-03-10:35:17
603,106_CF_Mono,603,302,,Complete,C,M,D,F1,F1002.png,F1059.png,F1046.png,F1015.png,D,1,0.171114917,0.3,0.3,0.5,2017-04-03-10:35:20
603,106_CF_Mono,603,303,,Complete,I,M,D,M3,M3183.png,M3153.png,M3187.png,M3153.png,D,1,0.031299644,0.3,0.3,0.5,2017-04-03-10:35:22
603,106_CF_Mono,603,304,,Complete,C,M,D,F5,F5076.png,F5033.png,F5078.png,F5068.png,D,1,0.045781191,0.3,0.3,0.5,2017-04-03-10:35:24
603,106_CF_Mono,603,305,,Complete,C,M,D,F3,F3062.png,F3112.png,F3079.png,F3047.png,D,1,0.12099217,0.3,0.3,0.5,2017-04-03-10:35:27
603,106_CF_Mono,603,306,,Complete,I,M,D,F5,F5068.png,F5076.png,F5078.png,F5076.png,S,0,0.206111899,0.3,0.3,0.5,2017-04-03-10:35:29
603,106_CF_Mono,603,307,,Complete,I,M,D,M5,M5146.png,M5178.png,M5152.png,M5178.png,D,1,0.145560926,0.3,0.3,0.5,2017-04-03-10:35:31
603,106_CF_Mono,603,308,,Complete,I,A,D,F4,F4040.png,F4018.png,F4020.png,F4018.png,D,1,0.094933597,0.3,0.3,0.5,2017-04-03-10:35:34
603,106_CF_Mono,603,309,,Complete,I,M,D,F4,F4018.png,F4064.png,F4040.png,F4064.png,D,1,0.095998714,0.3,0.3,0.5,2017-04-03-10:35:36
603,106_CF_Mono,603,310,,Complete,C,A,D,F1,F1015.png,F1002.png,F1059.png,F1046.png,D,1,0.041186785,0.3,0.3,0.5,2017-04-03-10:35:38
603,106_CF_Mono,603,311,,Complete,C,M,S,M4,M4136.png,M4134.png,M4136.png,M4134.png,S,1,0.071295743,0.3,0.3,0.5,2017-04-03-10:35:41
603,106_CF_Mono,603,312,,Complete,I,M,S,M1,M1122.png,M1186.png,M1122.png,M1119.png,S,1,0.085511097,0.3,0.3,0.5,2017-04-03-10:35:43
603,106_CF_Mono,603,313,,Complete,C,M,S,M2,M2198.png,M2201.png,M2198.png,M2201.png,S,1,0.000706938,0.3,0.3,0.5,2017-04-03-10:35:45
603,106_CF_Mono,603,314,,Complete,I,M,D,F5,F5078.png,F5068.png,F5033.png,F5068.png,D,1,0.035821081,0.3,0.3,0.5,2017-04-03-10:35:47
603,106_CF_Mono,603,315,,Complete,I,M,D,M1,M1122.png,M1186.png,M1125.png,M1186.png,D,1,0.145330749,0.3,0.3,0.5,2017-04-03-10:35:50
603,106_CF_Mono,603,316,,Complete,I,M,D,F3,F3112.png,F3079.png,F3062.png,F3079.png,D,1,0.035517341,0.3,0.3,0.5,2017-04-03-10:35:52
603,106_CF_Mono,603,317,,Complete,C,A,D,M2,M2142.png,M2141.png,M2198.png,M2201.png,S,0,0.216062627,0.3,0.3,0.5,2017-04-03-10:35:54
603,106_CF_Mono,603,318,,Complete,I,M,D,F2,F2067.png,F2032.png,F2016.png,F2032.png,D,1,0.296188191,0.3,0.3,0.5,2017-04-03-10:35:57
603,106_CF_Mono,603,319,,Complete,C,A,D,F5,F5078.png,F5068.png,F5076.png,F5033.png,S,0,0.225382824,0.3,0.3,0.5,2017-04-03-10:35:59
603,106_CF_Mono,603,320,,Complete,I,M,S,F4,F4018.png,F4064.png,F4018.png,F4020.png,S,1,0.006233652,0.3,0.3,0.5,2017-04-03-10:36:02
604,104_CF_CFS,604,1,,Complete,C,M,D,F4,F4064.png,F4020.png,F4018.png,F4040.png,D,1,0.140778428,0.3,0.3,0.5,2017-04-03-12:23:36
604,104_CF_CFS,604,2,,Complete,I,M,D,F4,F4040.png,F4064.png,F4018.png,F4064.png,D,1,0.086317547,0.3,0.3,0.5,2017-04-03-12:23:39
604,104_CF_CFS,604,3,,Complete,C,A,D,F4,F4018.png,F4040.png,F4064.png,F4020.png,S,0,0.235770191,0.3,0.3,0.5,2017-04-03-12:23:41
604,104_CF_CFS,604,4,,Complete,C,A,S,F1,F1015.png,F1002.png,F1015.png,F1002.png,D,0,0.1753463,0.3,0.3,0.5,2017-04-03-12:23:44
604,104_CF_CFS,604,5,,Complete,C,M,S,M5,M5154.png,M5178.png,M5154.png,M5178.png,S,1,0.046170901,0.3,0.3,0.5,2017-04-03-12:23:46
604,104_CF_CFS,604,6,,Complete,I,A,D,F3,F3047.png,F3062.png,F3112.png,F3062.png,D,1,0.166311943,0.3,0.3,0.5,2017-04-03-12:23:48
604,104_CF_CFS,604,7,,Complete,C,A,S,M2,M2201.png,M2142.png,M2201.png,M2142.png,S,1,0.310426591,0.3,0.3,0.5,2017-04-03-12:23:51
604,104_CF_CFS,604,8,,Complete,C,A,D,M4,M4197.png,M4134.png,M4136.png,M4188.png,D,1,0.201062379,0.3,0.3,0.5,2017-04-03-12:23:53
604,104_CF_CFS,604,9,,Complete,C,M,D,M2,M2201.png,M2142.png,M2141.png,M2198.png,D,1,0.325904776,0.3,0.3,0.5,2017-04-03-12:23:56
604,104_CF_CFS,604,10,,Complete,C,M,D,F1,F1059.png,F1015.png,F1002.png,F1046.png,D,1,0.135559597,0.3,0.3,0.5,2017-04-03-12:23:58
604,104_CF_CFS,604,11,,Complete,I,M,S,M1,M1125.png,M1122.png,M1125.png,M1119.png,D,0,0.121157087,0.3,0.3,0.5,2017-04-03-12:24:00
604,104_CF_CFS,604,12,,Complete,C,M,D,M4,M4188.png,M4197.png,M4134.png,M4136.png,D,1,0.321196287,0.3,0.3,0.5,2017-04-03-12:24:03
604,104_CF_CFS,604,13,,Complete,C,M,D,F3,F3112.png,F3047.png,F3062.png,F3079.png,D,1,0.106418242,0.3,0.3,0.5,2017-04-03-12:24:05
604,104_CF_CFS,604,14,,Complete,I,M,D,F1,F1046.png,F1059.png,F1002.png,F1059.png,D,1,0.190908018,0.3,0.3,0.5,2017-04-03-12:24:08
604,104_CF_CFS,604,15,,Complete,I,M,D,F2,F2032.png,F2016.png,F2067.png,F2016.png,D,1,0.116133624,0.3,0.3,0.5,2017-04-03-12:24:10
604,104_CF_CFS,604,16,,Complete,I,A,S,F5,F5078.png,F5076.png,F5078.png,F5033.png,S,1,0.496267006,0.3,0.3,0.5,2017-04-03-12:24:13
604,104_CF_CFS,604,17,,Complete,I,A,S,M2,M2201.png,M2142.png,M2201.png,M2141.png,D,0,0.145468978,0.3,0.3,0.5,2017-04-03-12:24:15
604,104_CF_CFS,604,18,,Complete,C,A,S,F2,F2017.png,F2067.png,F2017.png,F2067.png,S,1,1.140603931,0.3,0.3,0.5,2017-04-03-12:24:19
604,104_CF_CFS,604,19,,Complete,C,A,D,F3,F3079.png,F3112.png,F3047.png,F3062.png,D,1,0.230671112,0.3,0.3,0.5,2017-04-03-12:24:21
604,104_CF_CFS,604,20,,Complete,I,A,D,F5,F5033.png,F5068.png,F5076.png,F5068.png,D,1,0.200501006,0.3,0.3,0.5,2017-04-03-12:24:23
604,104_CF_CFS,604,21,,Complete,C,A,S,M2,M2198.png,M2201.png,M2198.png,M2201.png,S,1,0.051336357,0.3,0.3,0.5,2017-04-03-12:24:26
604,104_CF_CFS,604,22,,Complete,I,M,S,M5,M5146.png,M5152.png,M5146.png,M5154.png,D,0,0.206251101,0.3,0.3,0.5,2017-04-03-12:24:28
604,104_CF_CFS,604,23,,Complete,C,M,S,F1,F1059.png,F1015.png,F1059.png,F1015.png,S,1,0.465736814,0.3,0.3,0.5,2017-04-03-12:24:31
604,104_CF_CFS,604,24,,Complete,I,M,D,F3,F3112.png,F3047.png,F3079.png,F3047.png,S,0,0.120825297,0.3,0.3,0.5,2017-04-03-12:24:33
604,104_CF_CFS,604,25,,Complete,C,M,D,M4,M4136.png,M4188.png,M4197.png,M4134.png,D,1,0.331112316,0.3,0.3,0.5,2017-04-03-12:24:36
604,104_CF_CFS,604,26,,Complete,C,M,D,F5,F5076.png,F5033.png,F5068.png,F5078.png,D,1,1.345556911,0.3,0.3,0.5,2017-04-03-12:24:39
604,104_CF_CFS,604,27,,Complete,C,A,S,M3,M3187.png,M3013.png,M3187.png,M3013.png,S,1,0.355604863,0.3,0.3,0.5,2017-04-03-12:24:42
604,104_CF_CFS,604,28,,Complete,I,A,D,M1,M1125.png,M1122.png,M1186.png,M1122.png,D,1,0.155422155,0.3,0.3,0.5,2017-04-03-12:24:44
604,104_CF_CFS,604,29,,Complete,C,A,D,M5,M5146.png,M5152.png,M5154.png,M5178.png,D,1,0.430355307,0.3,0.3,0.5,2017-04-03-12:24:47
604,104_CF_CFS,604,30,,Complete,C,A,D,M4,M4136.png,M4188.png,M4197.png,M4134.png,D,1,0.76112034,0.3,0.3,0.5,2017-04-03-12:24:50
604,104_CF_CFS,604,31,,Complete,I,A,S,F5,F5033.png,F5068.png,F5033.png,F5078.png,S,1,0.140580665,0.3,0.3,0.5,2017-04-03-12:24:52
604,104_CF_CFS,604,32,,Complete,C,M,D,M5,M5146.png,M5152.png,M5154.png,M5178.png,S,0,0.115729885,0.3,0.3,0.5,2017-04-03-12:24:55
604,104_CF_CFS,604,33,,Complete,C,A,S,F1,F1059.png,F1015.png,F1059.png,F1015.png,D,0,0.375042812,0.3,0.3,0.5,2017-04-03-12:24:57
604,104_CF_CFS,604,34,,Complete,C,M,S,M2,M2198.png,M2201.png,M2198.png,M2201.png,D,0,0.270654894,0.3,0.3,0.5,2017-04-03-12:25:00
604,104_CF_CFS,604,35,,Complete,I,A,S,M1,M1122.png,M1119.png,M1122.png,M1186.png,D,0,1.340949846,0.3,0.3,0.5,2017-04-03-12:25:03
604,104_CF_CFS,604,36,,Complete,I,M,S,F2,F2067.png,F2032.png,F2067.png,F2016.png,S,1,0.115940993,0.3,0.3,0.5,2017-04-03-12:25:06
604,104_CF_CFS,604,37,,Complete,I,A,S,F2,F2067.png,F2032.png,F2067.png,F2016.png,S,1,0.551126789,0.3,0.3,0.5,2017-04-03-12:25:08
604,104_CF_CFS,604,38,,Complete,I,M,D,F3,F3047.png,F3062.png,F3112.png,F3062.png,D,1,0.230959546,0.3,0.3,0.5,2017-04-03-12:25:11
604,104_CF_CFS,604,39,,Complete,C,A,S,M5,M5178.png,M5146.png,M5178.png,M5146.png,S,1,0.181409804,0.3,0.3,0.5,2017-04-03-12:25:13
604,104_CF_CFS,604,40,,Complete,I,A,D,M2,M2142.png,M2141.png,M2201.png,M2141.png,D,1,0.265939367,0.3,0.3,0.5,2017-04-03-12:25:16
604,104_CF_CFS,604,41,,Complete,I,A,S,M3,M3187.png,M3013.png,M3187.png,M3183.png,S,1,0.071220128,0.3,0.3,0.5,2017-04-03-12:25:46
604,104_CF_CFS,604,42,,Complete,C,M,S,F3,F3047.png,F3062.png,F3047.png,F3062.png,S,1,0.540988167,0.3,0.3,0.5,2017-04-03-12:25:49
604,104_CF_CFS,604,43,,Complete,I,A,D,F2,F2067.png,F2032.png,F2017.png,F2032.png,D,1,0.236106183,0.3,0.3,0.5,2017-04-03-12:25:52
604,104_CF_CFS,604,44,,Complete,I,M,D,F2,F2016.png,F2017.png,F2032.png,F2017.png,D,1,0.220619396,0.3,0.3,0.5,2017-04-03-12:25:54
604,104_CF_CFS,604,45,,Complete,C,A,D,F2,F2016.png,F2017.png,F2067.png,F2032.png,D,1,0.230753229,0.3,0.3,0.5,2017-04-03-12:25:57
604,104_CF_CFS,604,46,,Complete,C,A,S,F3,F3062.png,F3079.png,F3062.png,F3079.png,S,1,0.140343554,0.3,0.3,0.5,2017-04-03-12:25:59
604,104_CF_CFS,604,47,,Complete,I,A,D,F5,F5078.png,F5076.png,F5068.png,F5076.png,D,1,0.196368163,0.3,0.3,0.5,2017-04-03-12:26:01
604,104_CF_CFS,604,48,,Complete,C,M,S,M4,M4134.png,M4136.png,M4134.png,M4136.png,S,1,0.51558584,0.3,0.3,0.5,2017-04-03-12:26:04
604,104_CF_CFS,604,49,,Complete,C,A,S,M4,M4197.png,M4134.png,M4197.png,M4134.png,S,1,0.32575902,0.3,0.3,0.5,2017-04-03-12:26:07
604,104_CF_CFS,604,50,,Complete,C,M,D,M1,M1186.png,M1125.png,M1122.png,M1119.png,D,1,0.185609465,0.3,0.3,0.5,2017-04-03-12:26:09
604,104_CF_CFS,604,51,,Complete,I,A,S,M2,M2141.png,M2198.png,M2141.png,M2201.png,D,0,1.026170456,0.3,0.3,0.5,2017-04-03-12:26:12
604,104_CF_CFS,604,52,,Complete,C,A,D,F5,F5068.png,F5078.png,F5076.png,F5033.png,D,1,0.3658475,0.3,0.3,0.5,2017-04-03-12:26:15
604,104_CF_CFS,604,53,,Complete,I,M,D,M1,M1186.png,M1125.png,M1119.png,M1125.png,D,1,0.310945586,0.3,0.3,0.5,2017-04-03-12:26:17
604,104_CF_CFS,604,54,,Complete,I,M,S,M3,M3013.png,M3183.png,M3013.png,M3153.png,S,1,0.26550552,0.3,0.3,0.5,2017-04-03-12:26:20
604,104_CF_CFS,604,55,,Complete,I,M,S,M1,M1119.png,M1186.png,M1119.png,M1125.png,S,1,0.410476326,0.3,0.3,0.5,2017-04-03-12:26:23
604,104_CF_CFS,604,56,,Complete,I,M,D,F5,F5076.png,F5033.png,F5078.png,F5033.png,D,1,0.241105696,0.3,0.3,0.5,2017-04-03-12:26:25
604,104_CF_CFS,604,57,,Complete,I,M,D,F1,F1059.png,F1015.png,F1046.png,F1015.png,S,0,0.896337785,0.3,0.3,0.5,2017-04-03-12:26:28
604,104_CF_CFS,604,58,,Complete,I,M,D,M5,M5178.png,M5146.png,M5154.png,M5146.png,D,1,0.115421949,0.3,0.3,0.5,2017-04-03-12:26:31
604,104_CF_CFS,604,59,,Complete,C,M,S,M5,M5178.png,M5146.png,M5178.png,M5146.png,S,1,0.530631594,0.3,0.3,0.5,2017-04-03-12:26:33
604,104_CF_CFS,604,60,,Complete,I,M,D,M5,M5154.png,M5178.png,M5152.png,M5178.png,D,1,0.646040199,0.3,0.3,0.5,2017-04-03-12:26:36
604,104_CF_CFS,604,61,,Complete,I,M,D,F4,F4020.png,F4018.png,F4064.png,F4018.png,D,1,0.146167651,0.3,0.3,0.5,2017-04-03-12:26:39
604,104_CF_CFS,604,62,,Complete,I,A,D,M5,M5146.png,M5152.png,M5178.png,M5152.png,D,1,0.786343037,0.3,0.3,0.5,2017-04-03-12:26:42
604,104_CF_CFS,604,63,,Complete,I,A,D,M2,M2201.png,M2142.png,M2198.png,M2142.png,D,1,0.38085596,0.3,0.3,0.5,2017-04-03-12:26:44
604,104_CF_CFS,604,64,,Complete,C,A,D,M1,M1186.png,M1125.png,M1122.png,M1119.png,D,1,0.261266609,0.3,0.3,0.5,2017-04-03-12:26:47
604,104_CF_CFS,604,65,,Complete,I,A,D,M4,M4134.png,M4136.png,M4197.png,M4136.png,D,1,0.70091782,0.3,0.3,0.5,2017-04-03-12:26:50
604,104_CF_CFS,604,66,,Complete,I,A,D,M1,M1119.png,M1186.png,M1122.png,M1186.png,D,1,0.615567778,0.3,0.3,0.5,2017-04-03-12:26:52
604,104_CF_CFS,604,67,,Complete,C,A,S,M3,M3013.png,M3183.png,M3013.png,M3183.png,S,1,0.215709527,0.3,0.3,0.5,2017-04-03-12:26:55
604,104_CF_CFS,604,68,,Complete,C,A,D,M2,M2141.png,M2198.png,M2201.png,M2142.png,D,1,0.195871947,0.3,0.3,0.5,2017-04-03-12:26:57
604,104_CF_CFS,604,69,,Complete,I,A,D,F4,F4064.png,F4020.png,F4040.png,F4020.png,D,1,0.631031055,0.3,0.3,0.5,2017-04-03-12:27:00
604,104_CF_CFS,604,70,,Complete,I,M,S,F3,F3047.png,F3062.png,F3047.png,F3079.png,S,1,0.200479744,0.3,0.3,0.5,2017-04-03-12:27:03
604,104_CF_CFS,604,71,,Complete,I,M,S,M1,M1186.png,M1125.png,M1186.png,M1122.png,D,0,0.161308181,0.3,0.3,0.5,2017-04-03-12:27:05
604,104_CF_CFS,604,72,,Complete,C,A,D,F2,F2067.png,F2032.png,F2016.png,F2017.png,D,1,0.415866575,0.3,0.3,0.5,2017-04-03-12:27:08
604,104_CF_CFS,604,73,,Complete,C,A,D,M5,M5154.png,M5178.png,M5146.png,M5152.png,D,1,0.24103966,0.3,0.3,0.5,2017-04-03-12:27:10
604,104_CF_CFS,604,74,,Complete,C,M,S,M3,M3183.png,M3153.png,M3183.png,M3153.png,S,1,0.350302889,0.3,0.3,0.5,2017-04-03-12:27:13
604,104_CF_CFS,604,75,,Complete,I,M,S,M4,M4188.png,M4197.png,M4188.png,M4134.png,S,1,0.101058102,0.3,0.3,0.5,2017-04-03-12:27:15
604,104_CF_CFS,604,76,,Complete,C,M,S,M2,M2141.png,M2198.png,M2141.png,M2198.png,S,1,0.065784275,0.3,0.3,0.5,2017-04-03-12:27:17
604,104_CF_CFS,604,77,,Complete,C,A,D,M1,M1122.png,M1119.png,M1186.png,M1125.png,D,1,0.196030705,0.3,0.3,0.5,2017-04-03-12:27:20
604,104_CF_CFS,604,78,,Complete,I,A,S,M1,M1186.png,M1125.png,M1186.png,M1122.png,S,1,0.226096209,0.3,0.3,0.5,2017-04-03-12:27:22
604,104_CF_CFS,604,79,,Complete,C,M,S,M1,M1125.png,M1122.png,M1125.png,M1122.png,S,1,0.190969605,0.3,0.3,0.5,2017-04-03-12:27:25
604,104_CF_CFS,604,80,,Complete,C,A,S,M4,M4188.png,M4197.png,M4188.png,M4197.png,S,1,0.025214144,0.3,0.3,0.5,2017-04-03-12:27:27
604,104_CF_CFS,604,81,,Complete,I,M,S,M4,M4197.png,M4134.png,M4197.png,M4136.png,S,1,0.116526071,0.3,0.3,0.5,2017-04-03-12:27:43
604,104_CF_CFS,604,82,,Complete,I,A,S,F1,F1059.png,F1015.png,F1059.png,F1002.png,S,1,0.070533137,0.3,0.3,0.5,2017-04-03-12:27:45
604,104_CF_CFS,604,83,,Complete,C,M,D,M3,M3183.png,M3153.png,M3187.png,M3013.png,D,1,0.210781182,0.3,0.3,0.5,2017-04-03-12:27:47
604,104_CF_CFS,604,84,,Complete,I,M,D,M3,M3013.png,M3183.png,M3187.png,M3183.png,D,1,0.241338358,0.3,0.3,0.5,2017-04-03-12:27:50
604,104_CF_CFS,604,85,,Complete,I,M,D,F3,F3062.png,F3079.png,F3047.png,F3079.png,S,0,0.210387366,0.3,0.3,0.5,2017-04-03-12:27:52
604,104_CF_CFS,604,86,,Complete,I,A,S,F5,F5076.png,F5033.png,F5076.png,F5068.png,S,1,0.360915391,0.3,0.3,0.5,2017-04-03-12:27:55
604,104_CF_CFS,604,87,,Complete,I,A,S,F1,F1046.png,F1059.png,F1046.png,F1015.png,S,1,0.101364865,0.3,0.3,0.5,2017-04-03-12:27:57
604,104_CF_CFS,604,88,,Complete,I,A,S,F1,F1002.png,F1046.png,F1002.png,F1059.png,S,1,0.051202576,0.3,0.3,0.5,2017-04-03-12:27:59
604,104_CF_CFS,604,89,,Complete,I,M,D,M2,M2142.png,M2141.png,M2201.png,M2141.png,D,1,0.151028347,0.3,0.3,0.5,2017-04-03-12:28:02
604,104_CF_CFS,604,90,,Complete,C,A,D,F3,F3047.png,F3062.png,F3079.png,F3112.png,D,1,0.215845899,0.3,0.3,0.5,2017-04-03-12:28:04
604,104_CF_CFS,604,91,,Complete,I,M,S,M3,M3183.png,M3153.png,M3183.png,M3187.png,S,1,0.246070993,0.3,0.3,0.5,2017-04-03-12:28:07
604,104_CF_CFS,604,92,,Complete,I,M,D,F4,F4064.png,F4020.png,F4040.png,F4020.png,D,1,0.136203867,0.3,0.3,0.5,2017-04-03-12:28:09
604,104_CF_CFS,604,93,,Complete,C,M,S,F5,F5068.png,F5078.png,F5068.png,F5078.png,S,1,0.210719986,0.3,0.3,0.5,2017-04-03-12:28:12
604,104_CF_CFS,604,94,,Complete,C,A,S,F5,F5076.png,F5033.png,F5076.png,F5033.png,S,1,0.40122627,0.3,0.3,0.5,2017-04-03-12:28:14
604,104_CF_CFS,604,95,,Complete,I,A,S,M2,M2198.png,M2201.png,M2198.png,M2142.png,S,1,0.256074124,0.3,0.3,0.5,2017-04-03-12:28:17
604,104_CF_CFS,604,96,,Complete,C,A,D,F5,F5076.png,F5033.png,F5068.png,F5078.png,S,0,1.045623117,0.3,0.3,0.5,2017-04-03-12:28:20
604,104_CF_CFS,604,97,,Complete,C,A,D,F1,F1059.png,F1015.png,F1002.png,F1046.png,D,1,0.185705268,0.3,0.3,0.5,2017-04-03-12:28:22
604,104_CF_CFS,604,98,,Complete,C,M,S,F5,F5033.png,F5068.png,F5033.png,F5068.png,S,1,0.231193919,0.3,0.3,0.5,2017-04-03-12:28:25
604,104_CF_CFS,604,99,,Complete,I,M,D,M4,M4188.png,M4197.png,M4136.png,M4197.png,D,1,0.180577644,0.3,0.3,0.5,2017-04-03-12:28:27
604,104_CF_CFS,604,100,,Complete,C,M,S,F5,F5076.png,F5033.png,F5076.png,F5033.png,S,1,0.280546142,0.3,0.3,0.5,2017-04-03-12:28:30
604,104_CF_CFS,604,101,,Complete,I,M,D,M4,M4197.png,M4134.png,M4188.png,M4134.png,D,1,0.256282005,0.3,0.3,0.5,2017-04-03-12:28:32
604,104_CF_CFS,604,102,,Complete,C,A,S,F1,F1002.png,F1046.png,F1002.png,F1046.png,S,1,0.275804953,0.3,0.3,0.5,2017-04-03-12:28:35
604,104_CF_CFS,604,103,,Complete,I,A,D,F1,F1015.png,F1002.png,F1059.png,F1002.png,D,1,0.185677895,0.3,0.3,0.5,2017-04-03-12:28:37
604,104_CF_CFS,604,104,,Complete,I,A,D,F1,F1046.png,F1059.png,F1002.png,F1059.png,D,1,0.291161039,0.3,0.3,0.5,2017-04-03-12:28:40
604,104_CF_CFS,604,105,,Complete,I,M,S,F1,F1059.png,F1015.png,F1059.png,F1002.png,S,1,0.101258992,0.3,0.3,0.5,2017-04-03-12:28:42
604,104_CF_CFS,604,106,,Complete,C,A,D,F4,F4020.png,F4018.png,F4040.png,F4064.png,S,0,1.261030867,0.3,0.3,0.5,2017-04-03-12:28:45
604,104_CF_CFS,604,107,,Complete,C,A,S,M4,M4134.png,M4136.png,M4134.png,M4136.png,S,1,0.205572616,0.3,0.3,0.5,2017-04-03-12:28:48
604,104_CF_CFS,604,108,,Complete,I,M,S,M5,M5178.png,M5146.png,M5178.png,M5152.png,S,1,0.160424404,0.3,0.3,0.5,2017-04-03-12:28:50
604,104_CF_CFS,604,109,,Complete,C,M,S,F2,F2032.png,F2016.png,F2032.png,F2016.png,S,1,0.226013409,0.3,0.3,0.5,2017-04-03-12:28:53
604,104_CF_CFS,604,110,,Complete,I,A,D,M3,M3013.png,M3183.png,M3187.png,M3183.png,S,0,0.125880483,0.3,0.3,0.5,2017-04-03-12:28:55
604,104_CF_CFS,604,111,,Complete,I,A,S,F1,F1015.png,F1002.png,F1015.png,F1046.png,S,1,0.185534534,0.3,0.3,0.5,2017-04-03-12:28:57
604,104_CF_CFS,604,112,,Complete,C,M,D,F2,F2017.png,F2067.png,F2032.png,F2016.png,D,1,0.1509933,0.3,0.3,0.5,2017-04-03-12:29:00
604,104_CF_CFS,604,113,,Complete,I,M,D,F5,F5068.png,F5078.png,F5033.png,F5078.png,D,1,0.250969472,0.3,0.3,0.5,2017-04-03-12:29:02
604,104_CF_CFS,604,114,,Complete,C,M,D,F2,F2032.png,F2016.png,F2017.png,F2067.png,D,1,0.20576901,0.3,0.3,0.5,2017-04-03-12:29:05
604,104_CF_CFS,604,115,,Complete,I,M,D,M1,M1125.png,M1122.png,M1186.png,M1122.png,D,1,0.510628754,0.3,0.3,0.5,2017-04-03-12:29:07
604,104_CF_CFS,604,116,,Complete,C,A,D,F4,F4064.png,F4020.png,F4018.png,F4040.png,D,1,0.506104832,0.3,0.3,0.5,2017-04-03-12:29:10
604,104_CF_CFS,604,117,,Complete,C,A,D,M3,M3187.png,M3013.png,M3183.png,M3153.png,D,1,0.295525176,0.3,0.3,0.5,2017-04-03-12:29:13
604,104_CF_CFS,604,118,,Complete,C,M,S,F2,F2067.png,F2032.png,F2067.png,F2032.png,S,1,0.365694558,0.3,0.3,0.5,2017-04-03-12:29:15
604,104_CF_CFS,604,119,,Complete,C,M,S,M1,M1186.png,M1125.png,M1186.png,M1125.png,S,1,0.330769334,0.3,0.3,0.5,2017-04-03-12:29:18
604,104_CF_CFS,604,120,,Complete,C,A,D,F5,F5033.png,F5068.png,F5078.png,F5076.png,D,1,0.206298024,0.3,0.3,0.5,2017-04-03-12:29:20
604,104_CF_CFS,604,121,,Complete,I,A,D,M2,M2141.png,M2198.png,M2142.png,M2198.png,D,1,0.146293904,0.3,0.3,0.5,2017-04-03-12:29:35
604,104_CF_CFS,604,122,,Complete,I,M,S,F4,F4018.png,F4040.png,F4018.png,F4064.png,S,1,0.221410889,0.3,0.3,0.5,2017-04-03-12:29:38
