Experiment,ExperimentNum,Participant,DominantEye,SubTrial,TrialType,Condition,Congruency,Alignment,SameDifferent,thisResponse,isCorrect,reactionTime,FaceGroup,StudyUpper,StudyLower,TargetUpper,TargetLower,TargetLower2,studyDuration,targetDuration,maskDuration,trialDuration,trialEndTime,Trial
112_catch_test,112,1205,Right,1,Catch,monocular,incongruent,aligned,Right,4,0,2.96580222773082,F4,F4040.png,F4020.png,F4040.png,F4064.png,F4064.png,0.3,0.3,0.5,2.97546587835586,2019-01-31-15:45:56,1
112_catch_test,112,1205,Right,2,Catch,monocular,incongruent,aligned,Left,4,1,1.97026829597962,F1,F1002.png,F1059.png,F1015.png,F1046.png,F1046.png,0.3,0.3,0.5,1.97514596923065,2019-01-31-15:46:00,2
112_catch_test,112,1205,Right,3,Catch,monocular,congruent,aligned,Left,4,1,3.88522481742075,F2,F2016.png,F2032.png,F2016.png,F2017.png,F2017.png,0.3,0.3,0.5,3.8922138908988,2019-01-31-15:46:06,3
112_catch_test,112,1205,Right,4,Catch,monocular,incongruent,aligned,Left,5,0,2.30527986916195,M4,M4134.png,M4136.png,M4197.png,M4188.png,M4188.png,0.3,0.3,0.5,2.30853815215687,2019-01-31-15:46:10,4
112_catch_test,112,1205,Right,5,Catch,monocular,incongruent,aligned,Left,4,1,3.02562010192651,F3,F3047.png,F3062.png,F3079.png,F3112.png,F3112.png,0.3,0.3,0.5,3.03358943170815,2019-01-31-15:46:16,5
112_catch_test,112,1205,Right,6,Catch,monocular,incongruent,misaligned,Left,5,0,3.43936661414682,F4,F4040.png,F4020.png,F4040.png,F4064.png,F4064.png,0.3,0.3,0.5,3.45037388309765,2019-01-31-15:46:21,6
112_catch_test,112,1205,Right,7,Catch,monocular,incongruent,misaligned,Left,4,1,1.87522791386755,F1,F1002.png,F1059.png,F1015.png,F1046.png,F1046.png,0.3,0.3,0.5,1.8834938866562,2019-01-31-15:46:25,7
112_catch_test,112,1205,Right,8,Catch,monocular,congruent,misaligned,Left,5,0,1.37584703211587,F2,F2016.png,F2032.png,F2016.png,F2017.png,F2017.png,0.3,0.3,0.5,1.38341296846602,2019-01-31-15:46:29,8
112_catch_test,112,1205,Right,9,Catch,monocular,incongruent,misaligned,Right,5,1,1.47568126102351,M4,M4134.png,M4136.png,M4197.png,M4188.png,M4188.png,0.3,0.3,0.5,1.48346719905021,2019-01-31-15:46:32,9
112_catch_test,112,1205,Right,10,Catch,monocular,incongruent,misaligned,Right,5,1,2.6904713270751,F3,F3047.png,F3062.png,F3079.png,F3112.png,F3112.png,0.3,0.3,0.5,2.70035908516229,2019-01-31-15:46:37,10
112_catch_test,112,1205,Right,11,Catch,monocular,incongruent,aligned,Right,4,0,1.38552642158538,M2,M2141.png,M2198.png,M2142.png,M2201.png,M2201.png,0.3,0.3,0.5,1.39193521070365,2019-01-31-15:46:41,11
112_catch_test,112,1205,Right,12,Catch,monocular,incongruent,aligned,Right,4,0,1.69051512212127,M3,M3187.png,M3013.png,M3183.png,M3153.png,M3153.png,0.3,0.3,0.5,1.70021675126281,2019-01-31-15:46:44,12
112_catch_test,112,1205,Right,13,Catch,monocular,incongruent,aligned,Right,5,1,1.72049898980549,F3,F3047.png,F3062.png,F3079.png,F3112.png,F3112.png,0.3,0.3,0.5,1.72521414237826,2019-01-31-15:46:48,13
112_catch_test,112,1205,Right,14,Catch,monocular,incongruent,aligned,Left,4,1,1.55032238970443,M4,M4188.png,M4197.png,M4136.png,M4134.png,M4134.png,0.3,0.3,0.5,1.55859315257612,2019-01-31-15:46:52,14
112_catch_test,112,1205,Right,15,Catch,monocular,congruent,aligned,Right,5,1,1.99000446504169,M1,M1119.png,M1125.png,M1186.png,M1119.png,M1119.png,0.3,0.3,0.5,2.000195366963,2019-01-31-15:46:56,15
112_catch_test,112,1205,Right,16,Catch,monocular,incongruent,misaligned,Right,5,1,2.60508672616652,M2,M2141.png,M2198.png,M2142.png,M2201.png,M2201.png,0.3,0.3,0.5,2.60864267861461,2019-01-31-15:47:01,16
112_catch_test,112,1205,Right,17,Catch,monocular,incongruent,misaligned,Left,4,1,3.15035865747632,M3,M3187.png,M3013.png,M3183.png,M3153.png,M3153.png,0.3,0.3,0.5,3.15861984018193,2019-01-31-15:47:06,17
112_catch_test,112,1205,Right,18,Catch,monocular,incongruent,misaligned,Right,5,1,2.58010575819299,F3,F3047.png,F3062.png,F3079.png,F3112.png,F3112.png,0.3,0.3,0.5,2.58361449410722,2019-01-31-15:47:11,18
112_catch_test,112,1205,Right,19,Catch,monocular,incongruent,misaligned,Right,5,1,2.41536487603071,M4,M4188.png,M4197.png,M4136.png,M4134.png,M4134.png,0.3,0.3,0.5,2.42527418949203,2019-01-31-15:47:15,19
112_catch_test,112,1205,Right,20,Catch,monocular,congruent,misaligned,Left,5,0,3.41540559173791,M1,M1119.png,M1125.png,M1186.png,M1119.png,M1119.png,0.3,0.3,0.5,3.42529608701534,2019-01-31-15:47:21,20
112_CF_CFS_catch_test,112,1205,Right,1,Catch,CFS,incongruent,aligned,Right,4,0,21.5714463142875,F4,F4064.png,F4040.png,F4064.png,F4020.png,F4020.png,0.3,0.3,0.5,21.577335379383,2019-01-31-15:10:27,1
112_CF_CFS_catch_test,112,1205,Right,1,CF,CFS,congruent,aligned,different,2,1,1.35670842934883,M4,M4188.png,M4134.png,M4197.png,M4136.png,,0.3,0.3,0.5,3.27012031662446,2019-01-31-15:10:31,2
112_CF_CFS_catch_test,112,1205,Right,2,CF,CFS,congruent,misaligned,same,2,0,1.23937328946988,M2,M2141.png,M2198.png,M2141.png,M2198.png,,0.3,0.3,0.5,3.15320465117077,2019-01-31-15:10:34,3
112_CF_CFS_catch_test,112,1205,Right,3,CF,CFS,incongruent,misaligned,different,1,0,1.17492751064515,F3,F3112.png,F3062.png,F3079.png,F3062.png,,0.3,0.3,0.5,3.08793976812569,2019-01-31-15:10:37,4
112_CF_CFS_catch_test,112,1205,Right,4,CF,CFS,incongruent,aligned,different,2,1,0.705736812302348,F4,F4040.png,F4018.png,F4064.png,F4018.png,,0.3,0.3,0.5,2.62098774936226,2019-01-31-15:10:40,5
112_CF_CFS_catch_test,112,1205,Right,5,CF,CFS,incongruent,aligned,different,2,1,1.50181304989724,F2,F2016.png,F2067.png,F2017.png,F2067.png,,0.3,0.3,0.5,3.41594139675396,2019-01-31-15:10:43,6
112_CF_CFS_catch_test,112,1205,Right,2,Catch,CFS,incongruent,aligned,Left,4,1,4.97102307622561,F1,F1046.png,F1015.png,F1002.png,F1059.png,F1059.png,0.3,0.3,0.5,4.97561334448733,2019-01-31-15:10:50,7
112_CF_CFS_catch_test,112,1205,Right,6,CF,CFS,congruent,aligned,different,1,0,2.53405852113031,M4,M4197.png,M4136.png,M4188.png,M4134.png,,0.3,0.3,0.5,4.44192657144663,2019-01-31-15:10:55,8
112_CF_CFS_catch_test,112,1205,Right,7,CF,CFS,congruent,aligned,same,1,1,2.34685796548058,M5,M5152.png,M5146.png,M5152.png,M5146.png,,0.3,0.3,0.5,4.25964611549909,2019-01-31-15:10:59,9
112_CF_CFS_catch_test,112,1205,Right,8,CF,CFS,incongruent,aligned,same,1,1,0.719476481547076,M1,M1119.png,M1186.png,M1119.png,M1122.png,,0.3,0.3,0.5,2.63446191114053,2019-01-31-15:11:02,10
112_CF_CFS_catch_test,112,1205,Right,9,CF,CFS,incongruent,misaligned,different,2,1,2.1410773615537,M1,M1125.png,M1119.png,M1122.png,M1119.png,,0.3,0.3,0.5,4.05160732951151,2019-01-31-15:11:06,11
112_CF_CFS_catch_test,112,1205,Right,10,CF,CFS,congruent,misaligned,different,2,1,1.29803572717731,M2,M2141.png,M2198.png,M2142.png,M2201.png,,0.3,0.3,0.5,3.20959145722884,2019-01-31-15:11:09,12
112_CF_CFS_catch_test,112,1205,Right,11,CF,CFS,incongruent,misaligned,same,1,1,1.22466294408775,M1,M1122.png,M1125.png,M1122.png,M1119.png,,0.3,0.3,0.5,3.13474743431175,2019-01-31-15:11:12,13
112_CF_CFS_catch_test,112,1205,Right,12,CF,CFS,incongruent,misaligned,same,1,1,0.818307188033032,M5,M5152.png,M5146.png,M5152.png,M5178.png,,0.3,0.3,0.5,2.73485384258765,2019-01-31-15:11:15,14
112_CF_CFS_catch_test,112,1205,Right,13,CF,CFS,incongruent,aligned,same,1,1,0.844130184195819,M4,M4197.png,M4136.png,M4197.png,M4188.png,,0.3,0.3,0.5,2.75975098410549,2019-01-31-15:11:18,15
112_CF_CFS_catch_test,112,1205,Right,14,CF,CFS,congruent,misaligned,different,2,1,1.01282938579163,F5,F5076.png,F5078.png,F5068.png,F5033.png,,0.3,0.3,0.5,2.92669804171135,2019-01-31-15:11:20,16
112_CF_CFS_catch_test,112,1205,Right,15,CF,CFS,incongruent,misaligned,same,2,0,1.0069676925998,F2,F2016.png,F2067.png,F2016.png,F2032.png,,0.3,0.3,0.5,2.91855353174549,2019-01-31-15:11:23,17
112_CF_CFS_catch_test,112,1205,Right,16,CF,CFS,congruent,misaligned,same,1,1,0.92967901652753,F5,F5078.png,F5068.png,F5078.png,F5068.png,,0.3,0.3,0.5,2.83878017110862,2019-01-31-15:11:26,18
112_CF_CFS_catch_test,112,1205,Right,17,CF,CFS,congruent,aligned,different,2,1,0.695035082226923,M1,M1186.png,M1122.png,M1125.png,M1119.png,,0.3,0.3,0.5,2.61012041926915,2019-01-31-15:11:29,19
112_CF_CFS_catch_test,112,1205,Right,18,CF,CFS,incongruent,aligned,different,2,1,0.757840257569569,M1,M1119.png,M1186.png,M1125.png,M1186.png,,0.3,0.3,0.5,2.66908873800128,2019-01-31-15:11:32,20
112_CF_CFS_catch_test,112,1205,Right,19,CF,CFS,congruent,aligned,different,2,1,0.794295527602003,F2,F2016.png,F2067.png,F2032.png,F2017.png,,0.3,0.3,0.5,2.71069368957865,2019-01-31-15:11:34,21
112_CF_CFS_catch_test,112,1205,Right,20,CF,CFS,congruent,aligned,different,2,1,0.621087831306909,F5,F5076.png,F5078.png,F5068.png,F5033.png,,0.3,0.3,0.5,2.5360058575875,2019-01-31-15:11:37,22
112_CF_CFS_catch_test,112,1205,Right,21,CF,CFS,incongruent,misaligned,different,2,1,0.862791663886696,M3,M3153.png,M3187.png,M3183.png,M3187.png,,0.3,0.3,0.5,2.77748010832431,2019-01-31-15:11:40,23
112_CF_CFS_catch_test,112,1205,Right,22,CF,CFS,incongruent,aligned,same,1,1,0.759297811445208,F2,F2017.png,F2016.png,F2017.png,F2067.png,,0.3,0.3,0.5,2.66384325479305,2019-01-31-15:11:42,24
112_CF_CFS_catch_test,112,1205,Right,23,CF,CFS,congruent,misaligned,different,2,1,0.62769472457876,F3,F3047.png,F3079.png,F3112.png,F3062.png,,0.3,0.3,0.5,2.54432246839826,2019-01-31-15:11:45,25
112_CF_CFS_catch_test,112,1205,Right,24,CF,CFS,congruent,aligned,same,1,1,0.87724300262937,F2,F2067.png,F2032.png,F2067.png,F2032.png,,0.3,0.3,0.5,2.79427345558315,2019-01-31-15:11:48,26
112_CF_CFS_catch_test,112,1205,Right,25,CF,CFS,congruent,aligned,same,1,1,0.948642271457516,M3,M3013.png,M3183.png,M3013.png,M3183.png,,0.3,0.3,0.5,2.86103831895457,2019-01-31-15:11:50,27
112_CF_CFS_catch_test,112,1205,Right,26,CF,CFS,incongruent,misaligned,same,1,1,2.51315186103284,M3,M3183.png,M3153.png,M3183.png,M3187.png,,0.3,0.3,0.5,4.4276456228049,2019-01-31-15:11:55,28
112_CF_CFS_catch_test,112,1205,Right,27,CF,CFS,congruent,aligned,different,2,1,0.735091126199791,M4,M4136.png,M4188.png,M4134.png,M4197.png,,0.3,0.3,0.5,2.65334441895436,2019-01-31-15:11:58,29
112_CF_CFS_catch_test,112,1205,Right,28,CF,CFS,incongruent,misaligned,same,1,1,0.716204854749208,F1,F1002.png,F1046.png,F1002.png,F1015.png,,0.3,0.3,0.5,2.62778077157975,2019-01-31-15:12:00,30
112_CF_CFS_catch_test,112,1205,Right,29,CF,CFS,incongruent,misaligned,same,1,1,0.538160200909715,F4,F4018.png,F4020.png,F4018.png,F4064.png,,0.3,0.3,0.5,2.45247433456336,2019-01-31-15:12:03,31
112_CF_CFS_catch_test,112,1205,Right,3,Catch,CFS,congruent,aligned,Right,4,0,4.31073645817833,F2,F2032.png,F2017.png,F2032.png,F2016.png,F2016.png,0.3,0.3,0.5,4.31725165557248,2019-01-31-15:12:09,32
112_CF_CFS_catch_test,112,1205,Right,30,CF,CFS,incongruent,aligned,same,1,1,1.39637647658594,M3,M3187.png,M3013.png,M3187.png,M3183.png,,0.3,0.3,0.5,3.30574792871664,2019-01-31-15:12:12,33
112_CF_CFS_catch_test,112,1205,Right,31,CF,CFS,incongruent,misaligned,same,1,1,0.871003577165652,F4,F4040.png,F4018.png,F4040.png,F4020.png,,0.3,0.3,0.5,2.78624356546425,2019-01-31-15:12:15,34
112_CF_CFS_catch_test,112,1205,Right,32,CF,CFS,incongruent,misaligned,same,1,1,1.6867591871229,M4,M4188.png,M4134.png,M4188.png,M4197.png,,0.3,0.3,0.5,3.60293803172067,2019-01-31-15:12:19,35
112_CF_CFS_catch_test,112,1205,Right,33,CF,CFS,congruent,misaligned,same,1,1,0.902080268107738,F2,F2016.png,F2067.png,F2016.png,F2067.png,,0.3,0.3,0.5,2.81388029240043,2019-01-31-15:12:22,36
112_CF_CFS_catch_test,112,1205,Right,34,CF,CFS,congruent,misaligned,same,1,1,0.764449888031777,F2,F2017.png,F2016.png,F2017.png,F2016.png,,0.3,0.3,0.5,2.67791036043673,2019-01-31-15:12:24,37
112_CF_CFS_catch_test,112,1205,Right,35,CF,CFS,congruent,aligned,different,2,1,0.632688044123483,F4,F4040.png,F4018.png,F4020.png,F4064.png,,0.3,0.3,0.5,2.54461842710782,2019-01-31-15:12:27,38
112_CF_CFS_catch_test,112,1205,Right,36,CF,CFS,congruent,misaligned,same,1,1,0.865974331997222,F4,F4020.png,F4064.png,F4020.png,F4064.png,,0.3,0.3,0.5,2.7778133612527,2019-01-31-15:12:30,39
112_CF_CFS_catch_test,112,1205,Right,37,CF,CFS,congruent,aligned,different,2,1,0.730015690943901,M1,M1125.png,M1119.png,M1186.png,M1122.png,,0.3,0.3,0.5,2.64446052543792,2019-01-31-15:12:32,40
112_CF_CFS_catch_test,112,1205,Right,38,CF,CFS,congruent,misaligned,different,2,1,1.27950905411251,F1,F1059.png,F1002.png,F1046.png,F1015.png,,0.3,0.3,0.5,3.19431246054592,2019-01-31-15:12:35,41
112_CF_CFS_catch_test,112,1205,Right,39,CF,CFS,congruent,aligned,same,1,1,0.726960644334667,F3,F3062.png,F3047.png,F3062.png,F3047.png,,0.3,0.3,0.5,2.6443917535297,2019-01-31-15:12:38,42
112_CF_CFS_catch_test,112,1205,Right,40,CF,CFS,incongruent,aligned,same,2,0,0.645884381078417,F1,F1002.png,F1046.png,F1002.png,F1015.png,,0.3,0.3,0.5,2.56071858090365,2019-01-31-15:12:54,43
112_CF_CFS_catch_test,112,1205,Right,41,CF,CFS,incongruent,aligned,different,1,0,0.790650616466564,M3,M3187.png,M3013.png,M3153.png,M3013.png,,0.3,0.3,0.5,2.70094894968872,2019-01-31-15:12:57,44
112_CF_CFS_catch_test,112,1205,Right,42,CF,CFS,incongruent,misaligned,same,1,1,0.801758477164185,M2,M2201.png,M2141.png,M2201.png,M2198.png,,0.3,0.3,0.5,2.71910747064794,2019-01-31-15:12:59,45
112_CF_CFS_catch_test,112,1205,Right,43,CF,CFS,incongruent,misaligned,different,2,1,0.700225479478718,M3,M3013.png,M3183.png,M3187.png,M3183.png,,0.3,0.3,0.5,2.61101753341518,2019-01-31-15:13:02,46
112_CF_CFS_catch_test,112,1205,Right,44,CF,CFS,incongruent,misaligned,same,1,1,0.539050472079794,F3,F3062.png,F3047.png,F3062.png,F3079.png,,0.3,0.3,0.5,2.45242814447579,2019-01-31-15:13:05,47
112_CF_CFS_catch_test,112,1205,Right,45,CF,CFS,incongruent,misaligned,different,2,1,0.760051907393972,F5,F5078.png,F5068.png,F5076.png,F5068.png,,0.3,0.3,0.5,2.67776255215631,2019-01-31-15:13:07,48
112_CF_CFS_catch_test,112,1205,Right,46,CF,CFS,congruent,aligned,different,1,0,0.716235990289761,F4,F4020.png,F4064.png,F4040.png,F4018.png,,0.3,0.3,0.5,2.62778898315082,2019-01-31-15:13:10,49
112_CF_CFS_catch_test,112,1205,Right,47,CF,CFS,incongruent,misaligned,different,2,1,0.682399527150324,F3,F3062.png,F3047.png,F3112.png,F3047.png,,0.3,0.3,0.5,2.59454683247202,2019-01-31-15:13:12,50
112_CF_CFS_catch_test,112,1205,Right,48,CF,CFS,congruent,aligned,same,1,1,0.609766469760075,M2,M2198.png,M2142.png,M2198.png,M2142.png,,0.3,0.3,0.5,2.52785347819918,2019-01-31-15:13:15,51
112_CF_CFS_catch_test,112,1205,Right,49,CF,CFS,incongruent,aligned,different,2,1,1.30800423238065,M4,M4134.png,M4197.png,M4188.png,M4197.png,,0.3,0.3,0.5,3.2197173508788,2019-01-31-15:13:18,52
112_CF_CFS_catch_test,112,1205,Right,50,CF,CFS,congruent,aligned,same,2,0,0.730244588489086,F2,F2016.png,F2067.png,F2016.png,F2067.png,,0.3,0.3,0.5,2.64453887751245,2019-01-31-15:13:21,53
112_CF_CFS_catch_test,112,1205,Right,51,CF,CFS,congruent,aligned,different,2,1,0.528110264292877,M3,M3153.png,M3187.png,M3013.png,M3183.png,,0.3,0.3,0.5,2.43772977430149,2019-01-31-15:13:23,54
112_CF_CFS_catch_test,112,1205,Right,52,CF,CFS,congruent,misaligned,same,1,1,0.717568659854464,M5,M5154.png,M5152.png,M5154.png,M5152.png,,0.3,0.3,0.5,2.62792994845529,2019-01-31-15:13:26,55
112_CF_CFS_catch_test,112,1205,Right,53,CF,CFS,congruent,misaligned,different,2,1,0.555688483784706,M1,M1125.png,M1119.png,M1186.png,M1122.png,,0.3,0.3,0.5,2.46978672154739,2019-01-31-15:13:28,56
112_CF_CFS_catch_test,112,1205,Right,54,CF,CFS,incongruent,misaligned,different,2,1,0.744066031296256,F4,F4020.png,F4064.png,F4018.png,F4064.png,,0.3,0.3,0.5,2.66137225618047,2019-01-31-15:13:31,57
112_CF_CFS_catch_test,112,1205,Right,55,CF,CFS,congruent,misaligned,same,1,1,0.644934576017704,M5,M5178.png,M5154.png,M5178.png,M5154.png,,0.3,0.3,0.5,2.56025941721794,2019-01-31-15:13:34,58
112_CF_CFS_catch_test,112,1205,Right,4,Catch,CFS,incongruent,aligned,Right,5,1,3.14053727625605,M4,M4134.png,M4197.png,M4188.png,M4136.png,M4136.png,0.3,0.3,0.5,3.15036789549401,2019-01-31-15:13:39,59
112_CF_CFS_catch_test,112,1205,Right,56,CF,CFS,congruent,aligned,same,1,1,0.689613050239473,F2,F2017.png,F2016.png,F2017.png,F2016.png,,0.3,0.3,0.5,2.5997834198115,2019-01-31-15:13:41,60
112_CF_CFS_catch_test,112,1205,Right,57,CF,CFS,congruent,misaligned,different,2,1,0.488716620391074,F5,F5068.png,F5033.png,F5076.png,F5078.png,,0.3,0.3,0.5,2.40323809621566,2019-01-31-15:13:44,61
112_CF_CFS_catch_test,112,1205,Right,58,CF,CFS,congruent,aligned,same,1,1,0.376120925649388,M5,M5154.png,M5152.png,M5154.png,M5152.png,,0.3,0.3,0.5,2.28641378449072,2019-01-31-15:13:46,62
112_CF_CFS_catch_test,112,1205,Right,59,CF,CFS,congruent,aligned,same,1,1,0.387893923608431,M4,M4197.png,M4136.png,M4197.png,M4136.png,,0.3,0.3,0.5,2.3032899317584,2019-01-31-15:13:49,63
112_CF_CFS_catch_test,112,1205,Right,60,CF,CFS,incongruent,aligned,same,1,1,0.494906092130464,M1,M1122.png,M1125.png,M1122.png,M1119.png,,0.3,0.3,0.5,2.41145753676813,2019-01-31-15:13:51,64
112_CF_CFS_catch_test,112,1205,Right,61,CF,CFS,congruent,aligned,different,2,1,0.51014882104073,F3,F3112.png,F3062.png,F3047.png,F3079.png,,0.3,0.3,0.5,2.41161800455393,2019-01-31-15:13:53,65
112_CF_CFS_catch_test,112,1205,Right,62,CF,CFS,incongruent,misaligned,same,1,1,0.300731859698431,M4,M4134.png,M4197.png,M4134.png,M4136.png,,0.3,0.3,0.5,2.28641686382991,2019-01-31-15:13:56,66
112_CF_CFS_catch_test,112,1205,Right,63,CF,CFS,incongruent,misaligned,same,1,1,0.3125103320383,F5,F5068.png,F5033.png,F5068.png,F5076.png,,0.3,0.3,0.5,2.32822402534634,2019-01-31-15:13:58,67
112_CF_CFS_catch_test,112,1205,Right,64,CF,CFS,incongruent,misaligned,different,2,1,0.514571094243138,M5,M5178.png,M5154.png,M5146.png,M5154.png,,0.3,0.3,0.5,2.42812839475755,2019-01-31-15:14:00,68
112_CF_CFS_catch_test,112,1205,Right,65,CF,CFS,incongruent,misaligned,same,1,1,0.585704855604718,F2,F2032.png,F2017.png,F2032.png,F2016.png,,0.3,0.3,0.5,2.49486793911797,2019-01-31-15:14:03,69
112_CF_CFS_catch_test,112,1205,Right,66,CF,CFS,congruent,aligned,different,2,1,0.556078191264533,F1,F1059.png,F1002.png,F1046.png,F1015.png,,0.3,0.3,0.5,2.46966799591473,2019-01-31-15:14:05,70
112_CF_CFS_catch_test,112,1205,Right,67,CF,CFS,congruent,misaligned,different,1,0,0.696694503892786,M5,M5178.png,M5154.png,M5152.png,M5146.png,,0.3,0.3,0.5,2.61141955825167,2019-01-31-15:14:08,71
112_CF_CFS_catch_test,112,1205,Right,68,CF,CFS,incongruent,misaligned,same,1,1,0.871500377219149,F1,F1046.png,F1015.png,F1046.png,F1059.png,,0.3,0.3,0.5,2.78645706631357,2019-01-31-15:14:11,72
112_CF_CFS_catch_test,112,1205,Right,69,CF,CFS,congruent,aligned,same,2,0,0.551558747803824,F4,F4020.png,F4064.png,F4020.png,F4064.png,,0.3,0.3,0.5,2.46215509262822,2019-01-31-15:14:13,73
112_CF_CFS_catch_test,112,1205,Right,70,CF,CFS,congruent,aligned,same,1,1,0.460056868551646,M4,M4136.png,M4188.png,M4136.png,M4188.png,,0.3,0.3,0.5,2.36972564798702,2019-01-31-15:14:16,74
112_CF_CFS_catch_test,112,1205,Right,71,CF,CFS,incongruent,misaligned,different,2,1,0.540917235916709,M4,M4197.png,M4136.png,M4134.png,M4136.png,,0.3,0.3,0.5,2.44764387784608,2019-01-31-15:14:18,75
112_CF_CFS_catch_test,112,1205,Right,72,CF,CFS,congruent,aligned,different,2,1,0.529988661188895,M2,M2142.png,M2201.png,M2141.png,M2198.png,,0.3,0.3,0.5,2.44470789901811,2019-01-31-15:14:21,76
112_CF_CFS_catch_test,112,1205,Right,5,Catch,CFS,incongruent,aligned,Left,4,1,2.43559100217101,F3,F3112.png,F3062.png,F3079.png,F3047.png,F3047.png,0.3,0.3,0.5,2.44194162599376,2019-01-31-15:14:25,77
112_CF_CFS_catch_test,112,1205,Right,73,CF,CFS,incongruent,misaligned,same,1,1,1.30321380707255,F3,F3047.png,F3079.png,F3047.png,F3112.png,,0.3,0.3,0.5,3.21642553730192,2019-01-31-15:14:28,78
112_CF_CFS_catch_test,112,1205,Right,74,CF,CFS,incongruent,aligned,different,2,1,0.406037390020515,F5,F5068.png,F5033.png,F5078.png,F5033.png,,0.3,0.3,0.5,2.31151005660854,2019-01-31-15:14:31,79
112_CF_CFS_catch_test,112,1205,Right,75,CF,CFS,incongruent,misaligned,same,1,1,0.864278642558929,M3,M3187.png,M3013.png,M3187.png,M3183.png,,0.3,0.3,0.5,2.77836764230392,2019-01-31-15:14:33,80
112_CF_CFS_catch_test,112,1205,Right,76,CF,CFS,congruent,misaligned,different,2,1,0.5688728455317,F2,F2017.png,F2016.png,F2067.png,F2032.png,,0.3,0.3,0.5,2.47822513733001,2019-01-31-15:14:36,81
112_CF_CFS_catch_test,112,1205,Right,77,CF,CFS,congruent,aligned,same,1,1,0.444629379290745,F3,F3112.png,F3062.png,F3112.png,F3062.png,,0.3,0.3,0.5,2.36158558595548,2019-01-31-15:14:38,82
112_CF_CFS_catch_test,112,1205,Right,78,CF,CFS,congruent,misaligned,same,2,0,0.301839737503428,M5,M5146.png,M5178.png,M5146.png,M5178.png,,0.3,0.3,0.5,2.31161235909883,2019-01-31-15:14:41,83
112_CF_CFS_catch_test,112,1205,Right,79,CF,CFS,incongruent,aligned,different,2,1,0.648452207800688,M2,M2201.png,M2141.png,M2142.png,M2141.png,,0.3,0.3,0.5,2.56144119916314,2019-01-31-15:14:43,84
112_CF_CFS_catch_test,112,1205,Right,80,CF,CFS,incongruent,aligned,same,1,1,0.511620745165828,F2,F2016.png,F2067.png,F2016.png,F2032.png,,0.3,0.3,0.5,2.4241170422606,2019-01-31-15:14:58,85
112_CF_CFS_catch_test,112,1205,Right,81,CF,CFS,congruent,aligned,same,2,0,0.621753995014842,F1,F1002.png,F1046.png,F1002.png,F1046.png,,0.3,0.3,0.5,2.53668433865187,2019-01-31-15:15:00,86
112_CF_CFS_catch_test,112,1205,Right,82,CF,CFS,congruent,misaligned,different,2,1,0.983433329740819,M1,M1119.png,M1186.png,M1122.png,M1125.png,,0.3,0.3,0.5,2.89459695727078,2019-01-31-15:15:03,87
112_CF_CFS_catch_test,112,1205,Right,83,CF,CFS,incongruent,aligned,different,1,0,0.547266833293179,F5,F5078.png,F5068.png,F5076.png,F5068.png,,0.3,0.3,0.5,2.45376868346261,2019-01-31-15:15:06,88
112_CF_CFS_catch_test,112,1205,Right,84,CF,CFS,congruent,misaligned,same,1,1,0.504361716286894,F1,F1002.png,F1046.png,F1002.png,F1046.png,,0.3,0.3,0.5,2.41165495662403,2019-01-31-15:15:08,89
112_CF_CFS_catch_test,112,1205,Right,85,CF,CFS,congruent,misaligned,different,2,1,0.622911484395672,M1,M1122.png,M1125.png,M1119.png,M1186.png,,0.3,0.3,0.5,2.53659606426231,2019-01-31-15:15:11,90
112_CF_CFS_catch_test,112,1205,Right,86,CF,CFS,congruent,misaligned,different,1,0,0.728652570136319,M4,M4136.png,M4188.png,M4134.png,M4197.png,,0.3,0.3,0.5,2.64474485108849,2019-01-31-15:15:13,91
112_CF_CFS_catch_test,112,1205,Right,87,CF,CFS,congruent,aligned,different,2,1,0.430221151296564,M5,M5146.png,M5178.png,M5154.png,M5152.png,,0.3,0.3,0.5,2.34495099573837,2019-01-31-15:15:16,92
112_CF_CFS_catch_test,112,1205,Right,88,CF,CFS,congruent,misaligned,same,1,1,0.376071656222621,F5,F5033.png,F5076.png,F5033.png,F5076.png,,0.3,0.3,0.5,2.27821487286587,2019-01-31-15:15:18,93
112_CF_CFS_catch_test,112,1205,Right,89,CF,CFS,incongruent,misaligned,same,1,1,0.627848007240118,F3,F3079.png,F3112.png,F3079.png,F3062.png,,0.3,0.3,0.5,2.54497426185662,2019-01-31-15:15:20,94
112_CF_CFS_catch_test,112,1205,Right,90,CF,CFS,incongruent,misaligned,different,2,1,0.557658576558424,F2,F2067.png,F2032.png,F2016.png,F2032.png,,0.3,0.3,0.5,2.46260638689159,2019-01-31-15:15:23,95
112_CF_CFS_catch_test,112,1205,Right,91,CF,CFS,incongruent,aligned,same,1,1,0.474072651875758,F5,F5076.png,F5078.png,F5076.png,F5068.png,,0.3,0.3,0.5,2.38647656879493,2019-01-31-15:15:25,96
112_CF_CFS_catch_test,112,1205,Right,92,CF,CFS,congruent,aligned,different,2,1,0.545835624874826,F2,F2017.png,F2016.png,F2067.png,F2032.png,,0.3,0.3,0.5,2.46159841653548,2019-01-31-15:15:28,97
112_CF_CFS_catch_test,112,1205,Right,93,CF,CFS,incongruent,aligned,same,1,1,0.542744994790837,M3,M3153.png,M3187.png,M3153.png,M3013.png,,0.3,0.3,0.5,2.45326777762375,2019-01-31-15:15:30,98
112_CF_CFS_catch_test,112,1205,Right,94,CF,CFS,congruent,aligned,different,1,0,0.588174485622176,F2,F2067.png,F2032.png,F2017.png,F2016.png,,0.3,0.3,0.5,2.49493944821666,2019-01-31-15:15:33,99
112_CF_CFS_catch_test,112,1205,Right,95,CF,CFS,congruent,misaligned,same,1,1,0.543396103951864,M4,M4136.png,M4188.png,M4136.png,M4188.png,,0.3,0.3,0.5,2.45308404371985,2019-01-31-15:15:35,100
112_CF_CFS_catch_test,112,1205,Right,96,CF,CFS,congruent,misaligned,different,2,1,0.548892724377083,F1,F1002.png,F1046.png,F1015.png,F1059.png,,0.3,0.3,0.5,2.45335947350145,2019-01-31-15:15:38,101
112_CF_CFS_catch_test,112,1205,Right,97,CF,CFS,incongruent,aligned,same,1,1,0.370061812601762,M2,M2142.png,M2201.png,M2142.png,M2141.png,,0.3,0.3,0.5,2.27825524642412,2019-01-31-15:15:40,102
112_CF_CFS_catch_test,112,1205,Right,98,CF,CFS,incongruent,aligned,same,1,1,0.398008868497072,F5,F5078.png,F5068.png,F5078.png,F5033.png,,0.3,0.3,0.5,2.31161372769407,2019-01-31-15:15:42,103
112_CF_CFS_catch_test,112,1205,Right,99,CF,CFS,congruent,aligned,different,2,1,0.576756980263326,F1,F1015.png,F1059.png,F1002.png,F1046.png,,0.3,0.3,0.5,2.49478240191888,2019-01-31-15:15:45,104
112_CF_CFS_catch_test,112,1205,Right,100,CF,CFS,incongruent,misaligned,same,1,1,0.500527254718008,M4,M4136.png,M4188.png,M4136.png,M4134.png,,0.3,0.3,0.5,2.40320285488951,2019-01-31-15:15:47,105
112_CF_CFS_catch_test,112,1205,Right,101,CF,CFS,congruent,aligned,different,2,1,0.491418911590472,F5,F5078.png,F5068.png,F5033.png,F5076.png,,0.3,0.3,0.5,2.40315803339718,2019-01-31-15:15:50,106
112_CF_CFS_catch_test,112,1205,Right,102,CF,CFS,congruent,misaligned,different,2,1,0.570523029180322,M2,M2142.png,M2201.png,M2141.png,M2198.png,,0.3,0.3,0.5,2.48668989856992,2019-01-31-15:15:52,107
112_CF_CFS_catch_test,112,1205,Right,103,CF,CFS,congruent,aligned,same,1,1,0.382509527988759,F5,F5078.png,F5068.png,F5078.png,F5068.png,,0.3,0.3,0.5,2.29478137547244,2019-01-31-15:15:54,108
112_CF_CFS_catch_test,112,1205,Right,104,CF,CFS,incongruent,aligned,different,1,0,0.410309802050051,F3,F3047.png,F3079.png,F3062.png,F3079.png,,0.3,0.3,0.5,2.3199648955333,2019-01-31-15:15:57,109
112_CF_CFS_catch_test,112,1205,Right,105,CF,CFS,congruent,misaligned,different,2,1,0.500356864617061,M1,M1186.png,M1122.png,M1125.png,M1119.png,,0.3,0.3,0.5,2.41164742935075,2019-01-31-15:15:59,110
112_CF_CFS_catch_test,112,1205,Right,106,CF,CFS,congruent,aligned,same,1,1,0.571484125151301,M1,M1186.png,M1122.png,M1186.png,M1122.png,,0.3,0.3,0.5,2.47826790592967,2019-01-31-15:16:02,111
112_CF_CFS_catch_test,112,1205,Right,107,CF,CFS,congruent,misaligned,same,2,0,0.343694115553944,M3,M3013.png,M3183.png,M3013.png,M3183.png,,0.3,0.3,0.5,2.25325443382076,2019-01-31-15:16:04,112
112_CF_CFS_catch_test,112,1205,Right,108,CF,CFS,congruent,aligned,same,1,1,0.61249750145862,F4,F4040.png,F4018.png,F4040.png,F4018.png,,0.3,0.3,0.5,2.52838825676895,2019-01-31-15:16:06,113
112_CF_CFS_catch_test,112,1205,Right,109,CF,CFS,congruent,aligned,same,1,1,0.422723986854862,M4,M4188.png,M4134.png,M4188.png,M4134.png,,0.3,0.3,0.5,2.33611774024394,2019-01-31-15:16:09,114
112_CF_CFS_catch_test,112,1205,Right,110,CF,CFS,incongruent,aligned,same,1,1,0.448470341686971,M5,M5152.png,M5146.png,M5152.png,M5178.png,,0.3,0.3,0.5,2.36117911318456,2019-01-31-15:16:11,115
112_CF_CFS_catch_test,112,1205,Right,111,CF,CFS,incongruent,misaligned,same,1,1,0.729279728881465,F2,F2017.png,F2016.png,F2017.png,F2067.png,,0.3,0.3,0.5,2.64482525605558,2019-01-31-15:16:14,116
112_CF_CFS_catch_test,112,1205,Right,112,CF,CFS,incongruent,misaligned,different,2,1,0.695063138428168,F1,F1059.png,F1002.png,F1015.png,F1002.png,,0.3,0.3,0.5,2.60324357059653,2019-01-31-15:16:16,117
112_CF_CFS_catch_test,112,1205,Right,113,CF,CFS,congruent,misaligned,different,1,0,0.918174605374361,F2,F2016.png,F2067.png,F2032.png,F2017.png,,0.3,0.3,0.5,2.82000715090999,2019-01-31-15:16:19,118
112_CF_CFS_catch_test,112,1205,Right,114,CF,CFS,incongruent,misaligned,same,1,1,0.436404806506516,F2,F2067.png,F2032.png,F2067.png,F2017.png,,0.3,0.3,0.5,2.35329908423864,2019-01-31-15:16:22,119
112_CF_CFS_catch_test,112,1205,Right,115,CF,CFS,congruent,misaligned,different,1,0,0.74151736490694,F4,F4040.png,F4018.png,F4020.png,F4064.png,,0.3,0.3,0.5,2.65334818259112,2019-01-31-15:16:24,120
112_CF_CFS_catch_test,112,1205,Right,116,CF,CFS,congruent,misaligned,same,1,1,0.675022799085127,F2,F2067.png,F2032.png,F2067.png,F2032.png,,0.3,0.3,0.5,2.57822017617241,2019-01-31-15:16:27,121
112_CF_CFS_catch_test,112,1205,Right,117,CF,CFS,congruent,misaligned,different,2,1,0.554667853923092,M5,M5146.png,M5178.png,M5154.png,M5152.png,,0.3,0.3,0.5,2.46976003394116,2019-01-31-15:16:29,122
112_CF_CFS_catch_test,112,1205,Right,118,CF,CFS,incongruent,misaligned,same,1,1,0.503506686442961,M1,M1119.png,M1186.png,M1119.png,M1122.png,,0.3,0.3,0.5,2.41161595166113,2019-01-31-15:16:32,123
112_CF_CFS_catch_test,112,1205,Right,119,CF,CFS,incongruent,misaligned,same,1,1,0.470018530778816,F5,F5078.png,F5068.png,F5078.png,F5033.png,,0.3,0.3,0.5,2.38637939853652,2019-01-31-15:16:34,124
112_CF_CFS_catch_test,112,1205,Right,120,CF,CFS,incongruent,misaligned,same,1,1,0.481209191485505,F5,F5076.png,F5078.png,F5076.png,F5068.png,,0.3,0.3,0.5,2.3897502484856,2019-01-31-15:16:57,125
112_CF_CFS_catch_test,112,1205,Right,121,CF,CFS,congruent,aligned,different,2,1,0.544843051214684,F5,F5068.png,F5033.png,F5076.png,F5078.png,,0.3,0.3,0.5,2.46175751572605,2019-01-31-15:16:59,126
112_CF_CFS_catch_test,112,1205,Right,122,CF,CFS,incongruent,misaligned,same,1,1,0.381746194022298,F1,F1059.png,F1002.png,F1059.png,F1046.png,,0.3,0.3,0.5,2.29482380192326,2019-01-31-15:17:01,127
112_CF_CFS_catch_test,112,1205,Right,123,CF,CFS,congruent,misaligned,different,2,1,0.393284820055442,F5,F5033.png,F5076.png,F5078.png,F5068.png,,0.3,0.3,0.5,2.30326187555715,2019-01-31-15:17:04,128
112_CF_CFS_catch_test,112,1205,Right,124,CF,CFS,incongruent,aligned,different,2,1,0.468306760347105,F3,F3062.png,F3047.png,F3112.png,F3047.png,,0.3,0.3,0.5,2.38674549774942,2019-01-31-15:17:06,129
112_CF_CFS_catch_test,112,1205,Right,125,CF,CFS,incongruent,aligned,same,1,1,0.356576359913333,M3,M3013.png,M3183.png,M3013.png,M3153.png,,0.3,0.3,0.5,2.26164871240871,2019-01-31-15:17:08,130
112_CF_CFS_catch_test,112,1205,Right,126,CF,CFS,congruent,misaligned,same,1,1,0.401344477119892,M1,M1122.png,M1125.png,M1122.png,M1125.png,,0.3,0.3,0.5,2.30327179787218,2019-01-31-15:17:11,131
112_CF_CFS_catch_test,112,1205,Right,127,CF,CFS,congruent,aligned,different,2,1,0.54058843092298,F3,F3062.png,F3047.png,F3079.png,F3112.png,,0.3,0.3,0.5,2.44482525605576,2019-01-31-15:17:13,132
112_CF_CFS_catch_test,112,1205,Right,128,CF,CFS,congruent,aligned,same,1,1,0.345685421553071,M1,M1125.png,M1119.png,M1125.png,M1119.png,,0.3,0.3,0.5,2.26164186943265,2019-01-31-15:17:15,133
112_CF_CFS_catch_test,112,1205,Right,129,CF,CFS,congruent,misaligned,same,1,1,0.390988317329402,F1,F1059.png,F1002.png,F1059.png,F1002.png,,0.3,0.3,0.5,2.29499282342886,2019-01-31-15:17:18,134
112_CF_CFS_catch_test,112,1205,Right,130,CF,CFS,incongruent,aligned,same,1,1,0.314483846299936,F4,F4020.png,F4064.png,F4020.png,F4040.png,,0.3,0.3,0.5,2.2865622770687,2019-01-31-15:17:20,135
112_CF_CFS_catch_test,112,1205,Right,131,CF,CFS,congruent,aligned,different,2,1,0.54985724183598,F1,F1002.png,F1046.png,F1015.png,F1059.png,,0.3,0.3,0.5,2.46084842637219,2019-01-31-15:17:23,136
112_CF_CFS_catch_test,112,1205,Right,132,CF,CFS,incongruent,aligned,different,2,1,0.626657329426052,M4,M4188.png,M4134.png,M4136.png,M4134.png,,0.3,0.3,0.5,2.54498042053501,2019-01-31-15:17:25,137
112_CF_CFS_catch_test,112,1205,Right,133,CF,CFS,congruent,aligned,different,2,1,0.532401152357124,M1,M1122.png,M1125.png,M1119.png,M1186.png,,0.3,0.3,0.5,2.43700852463735,2019-01-31-15:17:28,138
112_CF_CFS_catch_test,112,1205,Right,134,CF,CFS,incongruent,misaligned,different,2,1,0.569948903498698,F4,F4064.png,F4040.png,F4020.png,F4040.png,,0.3,0.3,0.5,2.48653490516494,2019-01-31-15:17:30,139
112_CF_CFS_catch_test,112,1205,Right,135,CF,CFS,congruent,misaligned,different,2,1,0.517814322690811,F3,F3062.png,F3047.png,F3079.png,F3112.png,,0.3,0.3,0.5,2.42806920301564,2019-01-31-15:17:32,140
112_CF_CFS_catch_test,112,1205,Right,136,CF,CFS,congruent,aligned,different,2,1,0.652250401597257,M4,M4134.png,M4197.png,M4136.png,M4188.png,,0.3,0.3,0.5,2.56158592810425,2019-01-31-15:17:35,141
112_CF_CFS_catch_test,112,1205,Right,137,CF,CFS,incongruent,misaligned,different,2,1,0.548746284691788,M1,M1122.png,M1125.png,M1186.png,M1125.png,,0.3,0.3,0.5,2.46170071902566,2019-01-31-15:17:37,142
112_CF_CFS_catch_test,112,1205,Right,138,CF,CFS,congruent,aligned,different,2,1,0.705812085037678,F2,F2032.png,F2017.png,F2016.png,F2067.png,,0.3,0.3,0.5,2.61162518967876,2019-01-31-15:17:40,143
112_CF_CFS_catch_test,112,1205,Right,139,CF,CFS,congruent,aligned,different,2,1,0.440381944123828,F3,F3047.png,F3079.png,F3112.png,F3062.png,,0.3,0.3,0.5,2.35298567594054,2019-01-31-15:17:42,144
112_CF_CFS_catch_test,112,1205,Right,140,CF,CFS,incongruent,misaligned,same,1,1,0.593880501111244,F4,F4064.png,F4040.png,F4064.png,F4018.png,,0.3,0.3,0.5,2.50597237832767,2019-01-31-15:17:45,145
112_CF_CFS_catch_test,112,1205,Right,141,CF,CFS,congruent,aligned,different,2,1,0.604659214665844,F3,F3079.png,F3112.png,F3062.png,F3047.png,,0.3,0.3,0.5,2.51986909387028,2019-01-31-15:17:47,146
112_CF_CFS_catch_test,112,1205,Right,142,CF,CFS,congruent,aligned,different,2,1,0.503144008718209,M1,M1119.png,M1186.png,M1122.png,M1125.png,,0.3,0.3,0.5,2.41966876574952,2019-01-31-15:17:50,147
112_CF_CFS_catch_test,112,1205,Right,143,CF,CFS,incongruent,misaligned,different,2,1,0.621910014866671,F2,F2016.png,F2067.png,F2017.png,F2067.png,,0.3,0.3,0.5,2.52917622544851,2019-01-31-15:17:52,148
112_CF_CFS_catch_test,112,1205,Right,6,Catch,CFS,incongruent,misaligned,Left,5,0,4.76507379294185,F4,F4064.png,F4040.png,F4064.png,F4020.png,F4020.png,0.3,0.3,0.5,4.7755257543954,2019-01-31-15:17:59,149
112_CF_CFS_catch_test,112,1205,Right,144,CF,CFS,congruent,aligned,different,2,1,0.418692447578678,M2,M2201.png,M2141.png,M2198.png,M2142.png,,0.3,0.3,0.5,2.33318757794586,2019-01-31-15:18:02,150
112_CF_CFS_catch_test,112,1205,Right,145,CF,CFS,incongruent,aligned,same,1,1,0.492497706747827,M3,M3183.png,M3153.png,M3183.png,M3187.png,,0.3,0.3,0.5,2.40314742678447,2019-01-31-15:18:04,151
112_CF_CFS_catch_test,112,1205,Right,146,CF,CFS,congruent,misaligned,same,1,1,0.387763222768172,F3,F3062.png,F3047.png,F3062.png,F3047.png,,0.3,0.3,0.5,2.30316949538178,2019-01-31-15:18:06,152
112_CF_CFS_catch_test,112,1205,Right,147,CF,CFS,incongruent,misaligned,different,2,1,0.631095341473156,F2,F2017.png,F2016.png,F2032.png,F2016.png,,0.3,0.3,0.5,2.53664157005232,2019-01-31-15:18:09,153
112_CF_CFS_catch_test,112,1205,Right,148,CF,CFS,congruent,misaligned,different,2,1,0.872626731059199,F2,F2032.png,F2017.png,F2016.png,F2067.png,,0.3,0.3,0.5,2.78681016387213,2019-01-31-15:18:12,154
112_CF_CFS_catch_test,112,1205,Right,149,CF,CFS,incongruent,aligned,same,1,1,0.840676876386851,M2,M2201.png,M2141.png,M2201.png,M2198.png,,0.3,0.3,0.5,2.7448921461455,2019-01-31-15:18:14,155
112_CF_CFS_catch_test,112,1205,Right,150,CF,CFS,incongruent,aligned,same,1,1,0.586134594493842,F2,F2032.png,F2017.png,F2032.png,F2016.png,,0.3,0.3,0.5,2.49600695246363,2019-01-31-15:18:17,156
112_CF_CFS_catch_test,112,1205,Right,151,CF,CFS,congruent,aligned,same,1,1,0.445271250434189,M1,M1119.png,M1186.png,M1119.png,M1186.png,,0.3,0.3,0.5,2.36147541404284,2019-01-31-15:18:19,157
112_CF_CFS_catch_test,112,1205,Right,152,CF,CFS,incongruent,aligned,different,2,1,0.534128319485035,F1,F1015.png,F1059.png,F1046.png,F1059.png,,0.3,0.3,0.5,2.44469421306644,2019-01-31-15:18:22,158
112_CF_CFS_catch_test,112,1205,Right,153,CF,CFS,incongruent,aligned,same,1,1,0.675806319830599,M5,M5178.png,M5154.png,M5178.png,M5152.png,,0.3,0.3,0.5,2.57820375303004,2019-01-31-15:18:24,159
112_CF_CFS_catch_test,112,1205,Right,154,CF,CFS,incongruent,misaligned,different,2,1,0.732056608518633,M2,M2141.png,M2198.png,M2201.png,M2198.png,,0.3,0.3,0.5,2.63674027998036,2019-01-31-15:18:27,160
112_CF_CFS_catch_test,112,1205,Right,155,CF,CFS,incongruent,aligned,different,2,1,0.545448654585471,M5,M5178.png,M5154.png,M5146.png,M5154.png,,0.3,0.3,0.5,2.46140441816738,2019-01-31-15:18:29,161
112_CF_CFS_catch_test,112,1205,Right,7,Catch,CFS,incongruent,misaligned,Left,4,1,2.19504294822787,F1,F1046.png,F1015.png,F1002.png,F1059.png,F1059.png,0.3,0.3,0.5,2.20024395209225,2019-01-31-15:18:34,162
112_CF_CFS_catch_test,112,1205,Right,156,CF,CFS,congruent,misaligned,same,1,1,1.46454449217413,M4,M4134.png,M4197.png,M4134.png,M4197.png,,0.3,0.3,0.5,3.37721699589929,2019-01-31-15:18:37,163
112_CF_CFS_catch_test,112,1205,Right,157,CF,CFS,congruent,misaligned,same,1,1,0.584674303427846,M3,M3153.png,M3187.png,M3153.png,M3187.png,,0.3,0.3,0.5,2.50318454992885,2019-01-31-15:18:40,164
112_CF_CFS_catch_test,112,1205,Right,158,CF,CFS,congruent,aligned,same,1,1,0.596140393915903,M3,M3187.png,M3013.png,M3187.png,M3013.png,,0.3,0.3,0.5,2.50337204746961,2019-01-31-15:18:42,165
112_CF_CFS_catch_test,112,1205,Right,159,CF,CFS,incongruent,misaligned,different,2,1,0.550932615505189,M2,M2142.png,M2201.png,M2198.png,M2201.png,,0.3,0.3,0.5,2.46150706280673,2019-01-31-15:18:45,166
112_CF_CFS_catch_test,112,1205,Right,160,CF,CFS,congruent,misaligned,different,2,1,0.481012455927157,M3,M3183.png,M3153.png,M3187.png,M3013.png,,0.3,0.3,0.5,2.39061246345409,2019-01-31-15:19:02,167
112_CF_CFS_catch_test,112,1205,Right,161,CF,CFS,incongruent,misaligned,different,1,0,0.608517284502113,M2,M2201.png,M2141.png,M2142.png,M2141.png,,0.3,0.3,0.5,2.51985540791839,2019-01-31-15:19:04,168
112_CF_CFS_catch_test,112,1205,Right,162,CF,CFS,congruent,misaligned,different,2,1,0.38737248884172,M4,M4188.png,M4134.png,M4197.png,M4136.png,,0.3,0.3,0.5,2.29494526474627,2019-01-31-15:19:07,169
112_CF_CFS_catch_test,112,1205,Right,163,CF,CFS,congruent,misaligned,same,1,1,0.534563874903597,M1,M1186.png,M1122.png,M1186.png,M1122.png,,0.3,0.3,0.5,2.44485228581061,2019-01-31-15:19:09,170
112_CF_CFS_catch_test,112,1205,Right,164,CF,CFS,incongruent,aligned,different,2,1,0.476017083489523,F2,F2017.png,F2016.png,F2032.png,F2016.png,,0.3,0.3,0.5,2.38632739191962,2019-01-31-15:19:12,171
112_CF_CFS_catch_test,112,1205,Right,165,CF,CFS,incongruent,aligned,same,1,1,0.467812013186631,M1,M1125.png,M1119.png,M1125.png,M1186.png,,0.3,0.3,0.5,2.37811445219404,2019-01-31-15:19:14,172
112_CF_CFS_catch_test,112,1205,Right,166,CF,CFS,congruent,aligned,same,1,1,0.420450408098077,F5,F5033.png,F5076.png,F5033.png,F5076.png,,0.3,0.3,0.5,2.3284693460339,2019-01-31-15:19:16,173
112_CF_CFS_catch_test,112,1205,Right,167,CF,CFS,incongruent,misaligned,different,1,0,0.374315748596018,M4,M4134.png,M4197.png,M4188.png,M4197.png,,0.3,0.3,0.5,2.28646373821493,2019-01-31-15:19:19,174
112_CF_CFS_catch_test,112,1205,Right,168,CF,CFS,congruent,misaligned,different,2,1,0.58625366227534,F4,F4020.png,F4064.png,F4040.png,F4018.png,,0.3,0.3,0.5,2.49503148624308,2019-01-31-15:19:21,175
112_CF_CFS_catch_test,112,1205,Right,169,CF,CFS,incongruent,aligned,different,2,1,0.533598330998302,M3,M3153.png,M3187.png,M3183.png,M3187.png,,0.3,0.3,0.5,2.44481464944283,2019-01-31-15:19:23,176
112_CF_CFS_catch_test,112,1205,Right,170,CF,CFS,incongruent,aligned,different,2,1,0.555284406055534,F5,F5076.png,F5078.png,F5033.png,F5078.png,,0.3,0.3,0.5,2.46169832398391,2019-01-31-15:19:26,177
112_CF_CFS_catch_test,112,1205,Right,171,CF,CFS,incongruent,aligned,same,1,1,0.552052810666964,M5,M5146.png,M5178.png,M5146.png,M5154.png,,0.3,0.3,0.5,2.46160046942805,2019-01-31-15:19:28,178
112_CF_CFS_catch_test,112,1205,Right,172,CF,CFS,incongruent,aligned,different,2,1,0.580892874922483,M1,M1125.png,M1119.png,M1122.png,M1119.png,,0.3,0.3,0.5,2.48686028867087,2019-01-31-15:19:31,179
112_CF_CFS_catch_test,112,1205,Right,173,CF,CFS,incongruent,aligned,same,1,1,0.512400160125708,F4,F4040.png,F4018.png,F4040.png,F4020.png,,0.3,0.3,0.5,2.428141396412,2019-01-31-15:19:33,180
112_CF_CFS_catch_test,112,1205,Right,174,CF,CFS,incongruent,misaligned,same,2,0,0.622502616583006,M3,M3153.png,M3187.png,M3153.png,M3013.png,,0.3,0.3,0.5,2.53649205102806,2019-01-31-15:19:36,181
112_CF_CFS_catch_test,112,1205,Right,175,CF,CFS,incongruent,aligned,different,1,0,0.376484629820879,M3,M3183.png,M3153.png,M3013.png,M3153.png,,0.3,0.3,0.5,2.2950119837617,2019-01-31-15:19:38,182
112_CF_CFS_catch_test,112,1205,Right,176,CF,CFS,congruent,aligned,same,1,1,0.467845885917541,F3,F3079.png,F3112.png,F3079.png,F3112.png,,0.3,0.3,0.5,2.37831734643078,2019-01-31-15:19:41,183
112_CF_CFS_catch_test,112,1205,Right,177,CF,CFS,incongruent,aligned,different,1,0,0.340211040799659,M4,M4197.png,M4136.png,M4134.png,M4136.png,,0.3,0.3,0.5,2.25313228670007,2019-01-31-15:19:43,184
112_CF_CFS_catch_test,112,1205,Right,178,CF,CFS,incongruent,aligned,different,2,1,0.737533042164841,M2,M2142.png,M2201.png,M2198.png,M2201.png,,0.3,0.3,0.5,2.64509213211727,2019-01-31-15:19:45,185
112_CF_CFS_catch_test,112,1205,Right,179,CF,CFS,incongruent,misaligned,same,1,1,0.486767398694155,F5,F5033.png,F5076.png,F5033.png,F5078.png,,0.3,0.3,0.5,2.40328120696404,2019-01-31-15:19:48,186
112_CF_CFS_catch_test,112,1205,Right,180,CF,CFS,congruent,misaligned,same,2,0,0.374275032889045,F3,F3112.png,F3062.png,F3112.png,F3062.png,,0.3,0.3,0.5,2.27870825143145,2019-01-31-15:19:50,187
112_CF_CFS_catch_test,112,1205,Right,181,CF,CFS,incongruent,misaligned,same,1,1,0.426458883123814,M4,M4197.png,M4136.png,M4197.png,M4188.png,,0.3,0.3,0.5,2.33674524113803,2019-01-31-15:19:53,188
112_CF_CFS_catch_test,112,1205,Right,182,CF,CFS,congruent,misaligned,different,1,0,0.380354332715797,M3,M3187.png,M3013.png,M3183.png,M3153.png,,0.3,0.3,0.5,2.28664918286313,2019-01-31-15:19:55,189
112_CF_CFS_catch_test,112,1205,Right,183,CF,CFS,congruent,misaligned,different,2,1,0.456004458198777,M5,M5154.png,M5152.png,M5146.png,M5178.png,,0.3,0.3,0.5,2.3616163793472,2019-01-31-15:19:57,190
112_CF_CFS_catch_test,112,1205,Right,184,CF,CFS,congruent,aligned,same,1,1,0.544960066103158,F1,F1015.png,F1059.png,F1015.png,F1059.png,,0.3,0.3,0.5,2.45334784044235,2019-01-31-15:20:00,191
112_CF_CFS_catch_test,112,1205,Right,185,CF,CFS,incongruent,misaligned,different,1,0,0.582045574219819,M1,M1186.png,M1122.png,M1119.png,M1122.png,,0.3,0.3,0.5,2.4867412208896,2019-01-31-15:20:02,192
112_CF_CFS_catch_test,112,1205,Right,186,CF,CFS,congruent,aligned,different,1,0,0.545367565320475,F1,F1046.png,F1015.png,F1059.png,F1002.png,,0.3,0.3,0.5,2.46140955039937,2019-01-31-15:20:05,193
112_CF_CFS_catch_test,112,1205,Right,187,CF,CFS,incongruent,misaligned,same,1,1,0.358872520490422,M5,M5154.png,M5152.png,M5154.png,M5146.png,,0.3,0.3,0.5,2.26142734213704,2019-01-31-15:20:07,194
112_CF_CFS_catch_test,112,1205,Right,188,CF,CFS,congruent,aligned,same,1,1,0.379544124364429,F1,F1046.png,F1015.png,F1046.png,F1015.png,,0.3,0.3,0.5,2.28672171840822,2019-01-31-15:20:09,195
112_CF_CFS_catch_test,112,1205,Right,189,CF,CFS,congruent,misaligned,same,1,1,0.343506960161903,M1,M1125.png,M1119.png,M1125.png,M1119.png,,0.3,0.3,0.5,2.31175743018866,2019-01-31-15:20:11,196
112_CF_CFS_catch_test,112,1205,Right,190,CF,CFS,incongruent,misaligned,different,2,1,0.490291873452861,M4,M4188.png,M4134.png,M4136.png,M4134.png,,0.3,0.3,0.5,2.39478428373718,2019-01-31-15:20:14,197
112_CF_CFS_catch_test,112,1205,Right,191,CF,CFS,congruent,aligned,same,1,1,0.337863215753941,F1,F1059.png,F1002.png,F1059.png,F1002.png,,0.3,0.3,0.5,2.24504388913692,2019-01-31-15:20:16,198
112_CF_CFS_catch_test,112,1205,Right,192,CF,CFS,incongruent,misaligned,same,1,1,0.558942660994035,M5,M5146.png,M5178.png,M5146.png,M5154.png,,0.3,0.3,0.5,2.46995300586264,2019-01-31-15:20:19,199
112_CF_CFS_catch_test,112,1205,Right,193,CF,CFS,congruent,aligned,same,1,1,1.90724671494399,M3,M3183.png,M3153.png,M3183.png,M3153.png,,0.3,0.3,0.5,3.81991203354414,2019-01-31-15:20:22,200
112_CF_CFS_catch_test,112,1205,Right,194,CF,CFS,congruent,aligned,same,2,0,0.505528443684852,F4,F4064.png,F4040.png,F4064.png,F4040.png,,0.3,0.3,0.5,2.41990416412182,2019-01-31-15:20:25,201
112_CF_CFS_catch_test,112,1205,Right,195,CF,CFS,incongruent,misaligned,different,1,0,0.328578665996247,F4,F4018.png,F4020.png,F4040.png,F4020.png,,0.3,0.3,0.5,2.28673232502069,2019-01-31-15:20:27,202
112_CF_CFS_catch_test,112,1205,Right,196,CF,CFS,incongruent,aligned,different,2,1,0.54797473915437,M3,M3013.png,M3183.png,M3187.png,M3183.png,,0.3,0.3,0.5,2.46144752891587,2019-01-31-15:20:30,203
112_CF_CFS_catch_test,112,1205,Right,197,CF,CFS,congruent,misaligned,different,2,1,0.608778344034135,M2,M2201.png,M2141.png,M2198.png,M2142.png,,0.3,0.3,0.5,2.51967167401426,2019-01-31-15:20:32,204
112_CF_CFS_catch_test,112,1205,Right,198,CF,CFS,incongruent,misaligned,different,2,1,0.523542235703189,F5,F5033.png,F5076.png,F5068.png,F5076.png,,0.3,0.3,0.5,2.42820537823695,2019-01-31-15:20:35,205
112_CF_CFS_catch_test,112,1205,Right,199,CF,CFS,incongruent,misaligned,different,2,1,0.465646553449687,M3,M3187.png,M3013.png,M3153.png,M3013.png,,0.3,0.3,0.5,2.37006642818892,2019-01-31-15:20:37,206
112_CF_CFS_catch_test,112,1205,Right,200,CF,CFS,congruent,misaligned,different,1,0,5.99627520054196,M3,M3153.png,M3187.png,M3013.png,M3183.png,,0.3,0.3,0.5,7.90550295017783,2019-01-31-15:21:06,207
112_CF_CFS_catch_test,112,1205,Right,201,CF,CFS,incongruent,aligned,same,1,1,0.446879691929325,F4,F4018.png,F4020.png,F4018.png,F4064.png,,0.3,0.3,0.5,2.35304486768246,2019-01-31-15:21:08,208
112_CF_CFS_catch_test,112,1205,Right,8,Catch,CFS,congruent,misaligned,Right,5,1,2.27552900480896,F2,F2032.png,F2017.png,F2032.png,F2016.png,F2016.png,0.3,0.3,0.5,2.28360097922996,2019-01-31-15:21:12,209
112_CF_CFS_catch_test,112,1205,Right,202,CF,CFS,congruent,aligned,different,2,1,0.799016838853277,F4,F4064.png,F4040.png,F4018.png,F4020.png,,0.3,0.3,0.5,2.70378365247279,2019-01-31-15:21:15,210
112_CF_CFS_catch_test,112,1205,Right,203,CF,CFS,congruent,misaligned,same,1,1,0.554187477012192,F1,F1015.png,F1059.png,F1015.png,F1059.png,,0.3,0.3,0.5,2.46164426447422,2019-01-31-15:21:18,211
112_CF_CFS_catch_test,112,1205,Right,204,CF,CFS,incongruent,aligned,same,1,1,0.375144775131275,F4,F4064.png,F4040.png,F4064.png,F4018.png,,0.3,0.3,0.5,2.27825148278725,2019-01-31-15:21:20,212
112_CF_CFS_catch_test,112,1205,Right,205,CF,CFS,incongruent,misaligned,same,1,1,0.355347361434269,M2,M2198.png,M2142.png,M2198.png,M2201.png,,0.3,0.3,0.5,2.26168326943707,2019-01-31-15:21:22,213
112_CF_CFS_catch_test,112,1205,Right,206,CF,CFS,incongruent,aligned,same,1,1,0.328260467614882,F3,F3047.png,F3079.png,F3047.png,F3112.png,,0.3,0.3,0.5,2.23672659402837,2019-01-31-15:21:24,214
112_CF_CFS_catch_test,112,1205,Right,9,Catch,CFS,incongruent,misaligned,Left,5,0,1.58028059622848,M4,M4134.png,M4197.png,M4188.png,M4136.png,M4136.png,0.3,0.3,0.5,1.58345231557746,2019-01-31-15:21:28,215
112_CF_CFS_catch_test,112,1205,Right,207,CF,CFS,incongruent,aligned,same,2,0,0.528462677553762,F3,F3079.png,F3112.png,F3079.png,F3062.png,,0.3,0.3,0.5,2.4437368807321,2019-01-31-15:21:31,216
112_CF_CFS_catch_test,112,1205,Right,208,CF,CFS,incongruent,aligned,different,2,1,0.486017750679821,M2,M2198.png,M2142.png,M2141.png,M2142.png,,0.3,0.3,0.5,2.4033301342422,2019-01-31-15:21:33,217
112_CF_CFS_catch_test,112,1205,Right,209,CF,CFS,incongruent,aligned,different,2,1,0.549186288044893,F1,F1002.png,F1046.png,F1059.png,F1046.png,,0.3,0.3,0.5,2.46165829257484,2019-01-31-15:21:35,218
112_CF_CFS_catch_test,112,1205,Right,210,CF,CFS,congruent,misaligned,same,2,0,0.489978465154763,M3,M3183.png,M3153.png,M3183.png,M3153.png,,0.3,0.3,0.5,2.40315666480183,2019-01-31-15:21:38,219
112_CF_CFS_catch_test,112,1205,Right,211,CF,CFS,congruent,aligned,same,1,1,0.401281521741112,F5,F5068.png,F5033.png,F5068.png,F5033.png,,0.3,0.3,0.5,2.31991083602361,2019-01-31-15:21:40,220
112_CF_CFS_catch_test,112,1205,Right,212,CF,CFS,incongruent,misaligned,same,1,1,0.475718729738446,F3,F3112.png,F3062.png,F3112.png,F3047.png,,0.3,0.3,0.5,2.38669109609077,2019-01-31-15:21:43,221
112_CF_CFS_catch_test,112,1205,Right,213,CF,CFS,congruent,misaligned,same,1,1,0.491831200891056,F5,F5068.png,F5033.png,F5068.png,F5033.png,,0.3,0.3,0.5,2.39492456474386,2019-01-31-15:21:45,222
112_CF_CFS_catch_test,112,1205,Right,214,CF,CFS,incongruent,misaligned,different,2,1,0.762926641587228,M4,M4136.png,M4188.png,M4197.png,M4188.png,,0.3,0.3,0.5,2.67827680179835,2019-01-31-15:21:48,223
112_CF_CFS_catch_test,112,1205,Right,215,CF,CFS,congruent,misaligned,same,1,1,0.535121577443078,M4,M4188.png,M4134.png,M4188.png,M4134.png,,0.3,0.3,0.5,2.45307035776773,2019-01-31-15:21:50,224
112_CF_CFS_catch_test,112,1205,Right,216,CF,CFS,incongruent,aligned,different,2,1,0.476523121560376,F4,F4018.png,F4020.png,F4040.png,F4020.png,,0.3,0.3,0.5,2.38653507623917,2019-01-31-15:21:53,225
112_CF_CFS_catch_test,112,1205,Right,217,CF,CFS,congruent,misaligned,different,2,1,0.779965309533509,M4,M4197.png,M4136.png,M4188.png,M4134.png,,0.3,0.3,0.5,2.69504140855815,2019-01-31-15:21:55,226
112_CF_CFS_catch_test,112,1205,Right,218,CF,CFS,congruent,misaligned,different,2,1,0.663474592885677,F1,F1015.png,F1059.png,F1002.png,F1046.png,,0.3,0.3,0.5,2.57761662569442,2019-01-31-15:21:58,227
112_CF_CFS_catch_test,112,1205,Right,219,CF,CFS,congruent,misaligned,same,1,1,0.543619527116107,M2,M2142.png,M2201.png,M2142.png,M2201.png,,0.3,0.3,0.5,2.46153409256158,2019-01-31-15:22:00,228
112_CF_CFS_catch_test,112,1205,Right,220,CF,CFS,incongruent,aligned,different,2,1,0.556801835970646,F4,F4064.png,F4040.png,F4020.png,F4040.png,,0.3,0.3,0.5,2.46169011241295,2019-01-31-15:22:03,229
112_CF_CFS_catch_test,112,1205,Right,221,CF,CFS,incongruent,aligned,same,1,1,0.721244364381619,F1,F1046.png,F1015.png,F1046.png,F1059.png,,0.3,0.3,0.5,2.63662668657958,2019-01-31-15:22:05,230
112_CF_CFS_catch_test,112,1205,Right,222,CF,CFS,incongruent,aligned,same,1,1,0.41504308850881,F5,F5033.png,F5076.png,F5033.png,F5078.png,,0.3,0.3,0.5,2.32801942036554,2019-01-31-15:22:08,231
112_CF_CFS_catch_test,112,1205,Right,223,CF,CFS,incongruent,aligned,same,1,1,2.30536866019679,M5,M5154.png,M5152.png,M5154.png,M5146.png,,0.3,0.3,0.5,4.21180379135103,2019-01-31-15:22:12,232
112_CF_CFS_catch_test,112,1205,Right,224,CF,CFS,congruent,aligned,same,1,1,0.503668180675277,M5,M5178.png,M5154.png,M5178.png,M5154.png,,0.3,0.3,0.5,2.41983984014792,2019-01-31-15:22:14,233
112_CF_CFS_catch_test,112,1205,Right,225,CF,CFS,congruent,misaligned,different,2,1,0.702476476415086,F1,F1046.png,F1015.png,F1059.png,F1002.png,,0.3,0.3,0.5,2.61173844093059,2019-01-31-15:22:17,234
112_CF_CFS_catch_test,112,1205,Right,226,CF,CFS,incongruent,misaligned,same,1,1,0.469244248051155,M1,M1186.png,M1122.png,M1186.png,M1125.png,,0.3,0.3,0.5,2.37829408031257,2019-01-31-15:22:19,235
112_CF_CFS_catch_test,112,1205,Right,227,CF,CFS,incongruent,aligned,different,2,1,0.5330519193692,M5,M5146.png,M5178.png,M5152.png,M5178.png,,0.3,0.3,0.5,2.44499564615671,2019-01-31-15:22:22,236
112_CF_CFS_catch_test,112,1205,Right,228,CF,CFS,congruent,aligned,different,2,1,0.530543968686743,M5,M5152.png,M5146.png,M5178.png,M5154.png,,0.3,0.3,0.5,2.44473082298759,2019-01-31-15:22:24,237
112_CF_CFS_catch_test,112,1205,Right,229,CF,CFS,congruent,aligned,same,1,1,0.496405046010523,M2,M2141.png,M2198.png,M2141.png,M2198.png,,0.3,0.3,0.5,2.40315392761158,2019-01-31-15:22:27,238
112_CF_CFS_catch_test,112,1205,Right,230,CF,CFS,congruent,misaligned,different,2,1,0.383219486742519,F4,F4018.png,F4020.png,F4064.png,F4040.png,,0.3,0.3,0.5,2.29499795566085,2019-01-31-15:22:29,239
112_CF_CFS_catch_test,112,1205,Right,231,CF,CFS,congruent,aligned,same,1,1,0.363320112703832,F4,F4018.png,F4020.png,F4018.png,F4020.png,,0.3,0.3,0.5,2.2699252918103,2019-01-31-15:22:31,240
112_CF_CFS_catch_test,112,1205,Right,232,CF,CFS,congruent,misaligned,same,1,1,0.51960410304855,M1,M1119.png,M1186.png,M1119.png,M1186.png,,0.3,0.3,0.5,2.42826662287143,2019-01-31-15:22:34,241
112_CF_CFS_catch_test,112,1205,Right,233,CF,CFS,congruent,aligned,different,2,1,0.669764314222675,M5,M5154.png,M5152.png,M5146.png,M5178.png,,0.3,0.3,0.5,2.57841793817715,2019-01-31-15:22:36,242
112_CF_CFS_catch_test,112,1205,Right,234,CF,CFS,congruent,misaligned,different,1,0,0.925822999584398,M2,M2198.png,M2142.png,M2201.png,M2141.png,,0.3,0.3,0.5,2.82829946915626,2019-01-31-15:22:39,243
112_CF_CFS_catch_test,112,1205,Right,235,CF,CFS,congruent,misaligned,same,1,1,0.507482455465151,F2,F2032.png,F2017.png,F2032.png,F2017.png,,0.3,0.3,0.5,2.41978270129903,2019-01-31-15:22:42,244
112_CF_CFS_catch_test,112,1205,Right,236,CF,CFS,congruent,aligned,different,1,0,0.258582891533706,F4,F4018.png,F4020.png,F4064.png,F4040.png,,0.3,0.3,0.5,2.25322227183392,2019-01-31-15:22:44,245
112_CF_CFS_catch_test,112,1205,Right,237,CF,CFS,incongruent,misaligned,different,2,1,0.631687943189718,F1,F1015.png,F1059.png,F1046.png,F1059.png,,0.3,0.3,0.5,2.53663951715976,2019-01-31-15:22:46,246
112_CF_CFS_catch_test,112,1205,Right,238,CF,CFS,incongruent,aligned,same,1,1,0.425139899510896,M4,M4134.png,M4197.png,M4134.png,M4136.png,,0.3,0.3,0.5,2.33658272045932,2019-01-31-15:22:49,247
112_CF_CFS_catch_test,112,1205,Right,239,CF,CFS,incongruent,aligned,same,1,1,0.419403090630112,F3,F3062.png,F3047.png,F3062.png,F3079.png,,0.3,0.3,0.5,2.32808032285152,2019-01-31-15:22:51,248
112_CF_CFS_catch_test,112,1205,Right,240,CF,CFS,congruent,misaligned,different,2,1,0.530798527391653,M3,M3013.png,M3183.png,M3153.png,M3187.png,,0.3,0.3,0.5,2.43827892312083,2019-01-31-15:23:05,249
112_CF_CFS_catch_test,112,1205,Right,241,CF,CFS,incongruent,misaligned,different,2,1,0.552183853656288,F1,F1002.png,F1046.png,F1059.png,F1046.png,,0.3,0.3,0.5,2.46996977115373,2019-01-31-15:23:07,250
112_CF_CFS_catch_test,112,1205,Right,242,CF,CFS,incongruent,misaligned,same,1,1,0.309134349857686,M3,M3013.png,M3183.png,M3013.png,M3153.png,,0.3,0.3,0.5,2.28680691345858,2019-01-31-15:23:10,251
112_CF_CFS_catch_test,112,1205,Right,243,CF,CFS,congruent,aligned,same,1,1,0.337138886750608,F3,F3047.png,F3079.png,F3047.png,F3079.png,,0.3,0.3,0.5,2.30317633835762,2019-01-31-15:23:12,252
112_CF_CFS_catch_test,112,1205,Right,244,CF,CFS,incongruent,aligned,different,2,1,0.44377195440552,M5,M5154.png,M5152.png,M5178.png,M5152.png,,0.3,0.3,0.5,2.36133958097048,2019-01-31-15:23:14,253
112_CF_CFS_catch_test,112,1205,Right,245,CF,CFS,incongruent,aligned,same,2,0,0.652530279313396,M1,M1186.png,M1122.png,M1186.png,M1125.png,,0.3,0.3,0.5,2.56980434221032,2019-01-31-15:23:17,254
112_CF_CFS_catch_test,112,1205,Right,246,CF,CFS,incongruent,misaligned,same,1,1,0.668923654628088,M1,M1125.png,M1119.png,M1125.png,M1186.png,,0.3,0.3,0.5,2.58635544812091,2019-01-31-15:23:19,255
112_CF_CFS_catch_test,112,1205,Right,247,CF,CFS,incongruent,aligned,different,2,1,0.444871620639105,F2,F2067.png,F2032.png,F2016.png,F2032.png,,0.3,0.3,0.5,2.3614846520602,2019-01-31-15:23:22,256
112_CF_CFS_catch_test,112,1205,Right,248,CF,CFS,incongruent,misaligned,same,1,1,0.493987422610417,M2,M2141.png,M2198.png,M2141.png,M2142.png,,0.3,0.3,0.5,2.40312552926139,2019-01-31-15:23:24,257
112_CF_CFS_catch_test,112,1205,Right,249,CF,CFS,congruent,misaligned,same,1,1,0.725136991246245,M4,M4197.png,M4136.png,M4197.png,M4136.png,,0.3,0.3,0.5,2.62837918982586,2019-01-31-15:23:27,258
112_CF_CFS_catch_test,112,1205,Right,250,CF,CFS,incongruent,aligned,different,1,0,0.418977115377857,F3,F3079.png,F3112.png,F3047.png,F3112.png,,0.3,0.3,0.5,2.33642191052468,2019-01-31-15:23:29,259
112_CF_CFS_catch_test,112,1205,Right,251,CF,CFS,congruent,aligned,same,1,1,0.365208089766384,M1,M1122.png,M1125.png,M1122.png,M1125.png,,0.3,0.3,0.5,2.26986781081223,2019-01-31-15:23:31,260
112_CF_CFS_catch_test,112,1205,Right,252,CF,CFS,incongruent,misaligned,different,2,1,0.481697095670143,M5,M5154.png,M5152.png,M5178.png,M5152.png,,0.3,0.3,0.5,2.38663258864653,2019-01-31-15:23:34,261
112_CF_CFS_catch_test,112,1205,Right,253,CF,CFS,congruent,aligned,same,1,1,0.489083746050255,M5,M5146.png,M5178.png,M5146.png,M5178.png,,0.3,0.3,0.5,2.40321277720477,2019-01-31-15:23:36,262
112_CF_CFS_catch_test,112,1205,Right,254,CF,CFS,incongruent,misaligned,same,1,1,0.416736040756859,F4,F4020.png,F4064.png,F4020.png,F4040.png,,0.3,0.3,0.5,2.31980682278913,2019-01-31-15:23:39,263
112_CF_CFS_catch_test,112,1205,Right,255,CF,CFS,incongruent,aligned,different,1,0,0.331342201830239,F1,F1059.png,F1002.png,F1015.png,F1002.png,,0.3,0.3,0.5,2.23666329650109,2019-01-31-15:23:41,264
112_CF_CFS_catch_test,112,1205,Right,256,CF,CFS,congruent,aligned,different,2,1,0.528705261051073,M2,M2141.png,M2198.png,M2142.png,M2201.png,,0.3,0.3,0.5,2.44503670401218,2019-01-31-15:23:43,265
112_CF_CFS_catch_test,112,1205,Right,257,CF,CFS,incongruent,misaligned,different,2,1,0.510427672310698,F2,F2032.png,F2017.png,F2067.png,F2017.png,,0.3,0.3,0.5,2.41999928148743,2019-01-31-15:23:46,266
112_CF_CFS_catch_test,112,1205,Right,258,CF,CFS,incongruent,aligned,different,1,0,0.565012380654252,M5,M5152.png,M5146.png,M5154.png,M5146.png,,0.3,0.3,0.5,2.47109133491062,2019-01-31-15:23:48,267
112_CF_CFS_catch_test,112,1205,Right,259,CF,CFS,congruent,misaligned,different,2,1,0.481160606356298,F5,F5078.png,F5068.png,F5033.png,F5076.png,,0.3,0.3,0.5,2.39476443910689,2019-01-31-15:23:51,268
112_CF_CFS_catch_test,112,1205,Right,260,CF,CFS,incongruent,aligned,different,2,1,0.448633546663132,M2,M2141.png,M2198.png,M2201.png,M2198.png,,0.3,0.3,0.5,2.36160406199042,2019-01-31-15:23:53,269
112_CF_CFS_catch_test,112,1205,Right,261,CF,CFS,congruent,aligned,same,1,1,0.497493421334184,F2,F2032.png,F2017.png,F2032.png,F2017.png,,0.3,0.3,0.5,2.41162313678615,2019-01-31-15:23:55,270
112_CF_CFS_catch_test,112,1205,Right,10,Catch,CFS,incongruent,misaligned,Right,5,1,2.07092470844646,F3,F3112.png,F3062.png,F3079.png,F3047.png,F3047.png,0.3,0.3,0.5,2.07518514526782,2019-01-31-15:24:00,271
112_CF_CFS_catch_test,112,1205,Right,262,CF,CFS,congruent,misaligned,different,2,1,0.583419301640333,F4,F4064.png,F4040.png,F4018.png,F4020.png,,0.3,0.3,0.5,2.49463733082871,2019-01-31-15:24:02,272
112_CF_CFS_catch_test,112,1205,Right,263,CF,CFS,incongruent,misaligned,different,2,1,0.53917877787876,M5,M5146.png,M5178.png,M5152.png,M5178.png,,0.3,0.3,0.5,2.44491934697476,2019-01-31-15:24:05,273
112_CF_CFS_catch_test,112,1205,Right,264,CF,CFS,congruent,aligned,different,2,1,0.592663819988729,M3,M3013.png,M3183.png,M3153.png,M3187.png,,0.3,0.3,0.5,2.4949305523478,2019-01-31-15:24:07,274
112_CF_CFS_catch_test,112,1205,Right,265,CF,CFS,incongruent,aligned,different,2,1,0.588140612891266,M1,M1186.png,M1122.png,M1119.png,M1122.png,,0.3,0.3,0.5,2.49514336889979,2019-01-31-15:24:10,275
112_CF_CFS_catch_test,112,1205,Right,266,CF,CFS,congruent,aligned,different,2,1,0.599663157930763,M2,M2198.png,M2142.png,M2201.png,M2141.png,,0.3,0.3,0.5,2.50313493835324,2019-01-31-15:24:12,276
112_CF_CFS_catch_test,112,1205,Right,267,CF,CFS,congruent,misaligned,same,1,1,0.56245208120572,F3,F3079.png,F3112.png,F3079.png,F3112.png,,0.3,0.3,0.5,2.47821281997312,2019-01-31-15:24:15,277
112_CF_CFS_catch_test,112,1205,Right,268,CF,CFS,congruent,aligned,different,2,1,0.470960808566133,M5,M5178.png,M5154.png,M5152.png,M5146.png,,0.3,0.3,0.5,2.37829373816385,2019-01-31-15:24:17,278
112_CF_CFS_catch_test,112,1205,Right,269,CF,CFS,incongruent,aligned,different,2,1,0.526773488942808,F2,F2032.png,F2017.png,F2067.png,F2017.png,,0.3,0.3,0.5,2.43646998243071,2019-01-31-15:24:19,279
112_CF_CFS_catch_test,112,1205,Right,270,CF,CFS,incongruent,aligned,different,2,1,0.548584790459699,F4,F4020.png,F4064.png,F4018.png,F4064.png,,0.3,0.3,0.5,2.46154401487661,2019-01-31-15:24:22,280
112_CF_CFS_catch_test,112,1205,Right,271,CF,CFS,congruent,misaligned,same,1,1,0.665704034447799,M5,M5152.png,M5146.png,M5152.png,M5146.png,,0.3,0.3,0.5,2.56997541660894,2019-01-31-15:24:24,281
112_CF_CFS_catch_test,112,1205,Right,272,CF,CFS,incongruent,aligned,same,1,1,0.441839840148305,F2,F2067.png,F2032.png,F2067.png,F2017.png,,0.3,0.3,0.5,2.35327616026916,2019-01-31-15:24:27,282
112_CF_CFS_catch_test,112,1205,Right,273,CF,CFS,congruent,misaligned,same,1,1,0.507085562860539,F5,F5076.png,F5078.png,F5076.png,F5078.png,,0.3,0.3,0.5,2.41987747651592,2019-01-31-15:24:29,283
112_CF_CFS_catch_test,112,1205,Right,274,CF,CFS,incongruent,misaligned,different,2,1,0.609887932582978,F3,F3047.png,F3079.png,F3062.png,F3079.png,,0.3,0.3,0.5,2.5198461699008,2019-01-31-15:24:32,284
112_CF_CFS_catch_test,112,1205,Right,275,CF,CFS,incongruent,misaligned,different,2,1,0.748011006926845,F5,F5068.png,F5033.png,F5078.png,F5033.png,,0.3,0.3,0.5,2.66173630250046,2019-01-31-15:24:34,285
112_CF_CFS_catch_test,112,1205,Right,276,CF,CFS,incongruent,misaligned,same,1,1,0.569119192665767,F1,F1015.png,F1059.png,F1015.png,F1002.png,,0.3,0.3,0.5,2.47827988113772,2019-01-31-15:24:37,286
112_CF_CFS_catch_test,112,1205,Right,277,CF,CFS,congruent,misaligned,same,1,1,0.389029173317113,F3,F3047.png,F3079.png,F3047.png,F3079.png,,0.3,0.3,0.5,2.30324887390293,2019-01-31-15:24:39,287
112_CF_CFS_catch_test,112,1205,Right,278,CF,CFS,congruent,misaligned,same,1,1,0.368273058690647,M3,M3187.png,M3013.png,M3187.png,M3013.png,,0.3,0.3,0.5,2.27835925965837,2019-01-31-15:24:41,288
112_CF_CFS_catch_test,112,1205,Right,279,CF,CFS,congruent,aligned,same,1,1,0.348431165649799,M2,M2201.png,M2141.png,M2201.png,M2141.png,,0.3,0.3,0.5,2.26158370413714,2019-01-31-15:24:44,289
112_CF_CFS_catch_test,112,1205,Right,280,CF,CFS,incongruent,aligned,same,1,1,0.550023184002612,F3,F3112.png,F3062.png,F3112.png,F3047.png,,0.3,0.3,0.5,2.45995199652384,2019-01-31-15:25:04,290
112_CF_CFS_catch_test,112,1205,Right,281,CF,CFS,incongruent,misaligned,different,2,1,0.754798212614787,M2,M2198.png,M2142.png,M2141.png,M2142.png,,0.3,0.3,0.5,2.66987773312735,2019-01-31-15:25:07,291
112_CF_CFS_catch_test,112,1205,Right,282,CF,CFS,incongruent,aligned,same,1,1,0.431357769600481,F1,F1059.png,F1002.png,F1059.png,F1046.png,,0.3,0.3,0.5,2.34475460232898,2019-01-31-15:25:09,292
112_CF_CFS_catch_test,112,1205,Right,283,CF,CFS,incongruent,misaligned,same,1,1,0.361312725711286,M5,M5178.png,M5154.png,M5178.png,M5152.png,,0.3,0.3,0.5,2.27011518439258,2019-01-31-15:25:11,293
112_CF_CFS_catch_test,112,1205,Right,284,CF,CFS,congruent,aligned,same,1,1,0.533354036757146,M2,M2142.png,M2201.png,M2142.png,M2201.png,,0.3,0.3,0.5,2.44474074530285,2019-01-31-15:25:14,294
112_CF_CFS_catch_test,112,1205,Right,285,CF,CFS,incongruent,aligned,same,1,1,0.355290564733878,M4,M4136.png,M4188.png,M4136.png,M4134.png,,0.3,0.3,0.5,2.2613934694059,2019-01-31-15:25:16,295
112_CF_CFS_catch_test,112,1205,Right,286,CF,CFS,incongruent,misaligned,different,2,1,0.440069904420852,F1,F1046.png,F1015.png,F1002.png,F1015.png,,0.3,0.3,0.5,2.34487367011025,2019-01-31-15:25:18,296
112_CF_CFS_catch_test,112,1205,Right,287,CF,CFS,congruent,misaligned,same,1,1,0.34528750250206,F1,F1046.png,F1015.png,F1046.png,F1015.png,,0.3,0.3,0.5,2.2616172347191,2019-01-31-15:25:21,297
112_CF_CFS_catch_test,112,1205,Right,288,CF,CFS,congruent,misaligned,same,1,1,0.334237807099953,M2,M2198.png,M2142.png,M2198.png,M2142.png,,0.3,0.3,0.5,2.24485194366162,2019-01-31-15:25:23,298
112_CF_CFS_catch_test,112,1205,Right,289,CF,CFS,incongruent,aligned,same,1,1,0.356098378043725,M2,M2141.png,M2198.png,M2141.png,M2142.png,,0.3,0.3,0.5,2.26146874214146,2019-01-31-15:25:25,299
112_CF_CFS_catch_test,112,1205,Right,290,CF,CFS,congruent,aligned,same,1,1,0.360991105842231,M4,M4134.png,M4197.png,M4134.png,M4197.png,,0.3,0.3,0.5,2.27001869843184,2019-01-31-15:25:27,300
112_CF_CFS_catch_test,112,1205,Right,291,CF,CFS,congruent,aligned,different,1,0,0.405015391563666,M3,M3183.png,M3153.png,M3187.png,M3013.png,,0.3,0.3,0.5,2.31990228230347,2019-01-31-15:25:30,301
112_CF_CFS_catch_test,112,1205,Right,292,CF,CFS,congruent,misaligned,different,2,1,0.615499857153054,F2,F2067.png,F2032.png,F2017.png,F2016.png,,0.3,0.3,0.5,2.52853503860297,2019-01-31-15:25:32,302
112_CF_CFS_catch_test,112,1205,Right,293,CF,CFS,congruent,misaligned,same,1,1,0.537552202497409,F4,F4064.png,F4040.png,F4064.png,F4040.png,,0.3,0.3,0.5,2.45293589329049,2019-01-31-15:25:35,303
112_CF_CFS_catch_test,112,1205,Right,294,CF,CFS,incongruent,aligned,same,1,1,0.382897524724513,F5,F5068.png,F5033.png,F5068.png,F5076.png,,0.3,0.3,0.5,2.29488538870669,2019-01-31-15:25:37,304
112_CF_CFS_catch_test,112,1205,Right,295,CF,CFS,congruent,misaligned,different,2,1,0.466565565118799,M5,M5152.png,M5146.png,M5178.png,M5154.png,,0.3,0.3,0.5,2.3699997091735,2019-01-31-15:25:39,305
112_CF_CFS_catch_test,112,1205,Right,296,CF,CFS,congruent,misaligned,same,1,1,0.291220465288234,F4,F4040.png,F4018.png,F4040.png,F4018.png,,0.3,0.3,0.5,2.26159465289857,2019-01-31-15:25:42,306
112_CF_CFS_catch_test,112,1205,Right,297,CF,CFS,congruent,misaligned,same,1,1,0.304055493113538,F4,F4018.png,F4020.png,F4018.png,F4020.png,,0.3,0.3,0.5,2.28660641426359,2019-01-31-15:25:44,307
112_CF_CFS_catch_test,112,1205,Right,298,CF,CFS,incongruent,misaligned,different,2,1,0.459791703234032,F3,F3079.png,F3112.png,F3047.png,F3112.png,,0.3,0.3,0.5,2.36174434299733,2019-01-31-15:25:46,308
112_CF_CFS_catch_test,112,1205,Right,299,CF,CFS,incongruent,misaligned,different,1,0,0.612327111357445,M1,M1119.png,M1186.png,M1125.png,M1186.png,,0.3,0.3,0.5,2.52834104023509,2019-01-31-15:25:49,309
112_CF_CFS_catch_test,112,1205,Right,300,CF,CFS,incongruent,aligned,different,2,1,0.414887410806159,F1,F1046.png,F1015.png,F1002.png,F1015.png,,0.3,0.3,0.5,2.31984377485924,2019-01-31-15:25:51,310
112_CF_CFS_catch_test,112,1205,Right,301,CF,CFS,incongruent,aligned,different,1,0,0.521373012329377,F3,F3112.png,F3062.png,F3079.png,F3062.png,,0.3,0.3,0.5,2.42834086916059,2019-01-31-15:25:54,311
112_CF_CFS_catch_test,112,1205,Right,302,CF,CFS,congruent,aligned,different,2,1,0.51111539139265,M3,M3187.png,M3013.png,M3183.png,M3153.png,,0.3,0.3,0.5,2.42825806915153,2019-01-31-15:25:56,312
112_CF_CFS_catch_test,112,1205,Right,303,CF,CFS,incongruent,aligned,same,1,1,0.501591337476839,M4,M4188.png,M4134.png,M4188.png,M4197.png,,0.3,0.3,0.5,2.40419132276429,2019-01-31-15:25:58,313
112_CF_CFS_catch_test,112,1205,Right,304,CF,CFS,congruent,misaligned,same,1,1,0.628483035407498,M2,M2201.png,M2141.png,M2201.png,M2141.png,,0.3,0.3,0.5,2.54485314118256,2019-01-31-15:26:01,314
112_CF_CFS_catch_test,112,1205,Right,305,CF,CFS,incongruent,aligned,same,1,1,1.70215759373605,M2,M2198.png,M2142.png,M2198.png,M2201.png,,0.3,0.3,0.5,3.61213430708881,2019-01-31-15:26:05,315
112_CF_CFS_catch_test,112,1205,Right,306,CF,CFS,congruent,aligned,same,1,1,0.588541611281471,F5,F5076.png,F5078.png,F5076.png,F5078.png,,0.3,0.3,0.5,2.50321773836208,2019-01-31-15:26:07,316
112_CF_CFS_catch_test,112,1205,Right,307,CF,CFS,congruent,misaligned,different,2,1,0.575595385097131,M4,M4134.png,M4197.png,M4136.png,M4188.png,,0.3,0.3,0.5,2.48653387871855,2019-01-31-15:26:10,317
112_CF_CFS_catch_test,112,1205,Right,308,CF,CFS,incongruent,misaligned,different,2,1,0.755840055702038,F5,F5076.png,F5078.png,F5033.png,F5078.png,,0.3,0.3,0.5,2.66166410910432,2019-01-31-15:26:12,318
112_CF_CFS_catch_test,112,1205,Right,309,CF,CFS,congruent,aligned,different,2,1,0.568209076865514,F5,F5033.png,F5076.png,F5078.png,F5068.png,,0.3,0.3,0.5,2.47818544806933,2019-01-31-15:26:15,319
112_CF_CFS_catch_test,112,1205,Right,310,CF,CFS,incongruent,misaligned,different,1,0,0.420740208129246,M3,M3183.png,M3153.png,M3013.png,M3153.png,,0.3,0.3,0.5,2.32835951626998,2019-01-31-15:26:17,320
112_CF_CFS_catch_test,112,1205,Right,311,CF,CFS,incongruent,misaligned,different,2,1,0.766605083304739,M5,M5152.png,M5146.png,M5154.png,M5146.png,,0.3,0.3,0.5,2.67811257037579,2019-01-31-15:26:20,321
112_CF_CFS_catch_test,112,1205,Right,312,CF,CFS,congruent,aligned,same,1,1,0.466724322160644,M3,M3153.png,M3187.png,M3153.png,M3187.png,,0.3,0.3,0.5,2.37824789022488,2019-01-31-15:26:22,322
112_CF_CFS_catch_test,112,1205,Right,313,CF,CFS,congruent,misaligned,different,2,1,0.498854831397693,F3,F3079.png,F3112.png,F3062.png,F3047.png,,0.3,0.3,0.5,2.41155402272898,2019-01-31-15:26:25,323
112_CF_CFS_catch_test,112,1205,Right,314,CF,CFS,congruent,misaligned,different,2,1,0.497614199859527,F3,F3112.png,F3062.png,F3047.png,F3079.png,,0.3,0.3,0.5,2.41143598139388,2019-01-31-15:26:27,324
112_CF_CFS_catch_test,112,1205,Right,315,CF,CFS,incongruent,aligned,different,2,1,0.568787650481454,M1,M1122.png,M1125.png,M1186.png,M1125.png,,0.3,0.3,0.5,2.4782620894,2019-01-31-15:26:29,325
112_CF_CFS_catch_test,112,1205,Right,316,CF,CFS,incongruent,misaligned,same,1,1,0.660589594228895,M2,M2142.png,M2201.png,M2142.png,M2141.png,,0.3,0.3,0.5,2.57830947700836,2019-01-31-15:26:32,326
112_CF_CFS_catch_test,112,1205,Right,317,CF,CFS,incongruent,misaligned,different,2,1,0.453080112430143,F4,F4040.png,F4018.png,F4064.png,F4018.png,,0.3,0.3,0.5,2.36165059422683,2019-01-31-15:26:34,327
112_CF_CFS_catch_test,112,1205,Right,318,CF,CFS,incongruent,aligned,different,2,1,0.494013425919093,F5,F5033.png,F5076.png,F5068.png,F5076.png,,0.3,0.3,0.5,2.40317343009315,2019-01-31-15:26:37,328
112_CF_CFS_catch_test,112,1205,Right,319,CF,CFS,incongruent,aligned,different,2,1,0.524670300286971,M4,M4136.png,M4188.png,M4197.png,M4188.png,,0.3,0.3,0.5,2.43677244196715,2019-01-31-15:26:39,329
112_CF_CFS_catch_test,112,1205,Right,320,CF,CFS,incongruent,aligned,same,2,0,0.634533594735103,F1,F1015.png,F1059.png,F1015.png,F1002.png,,0.3,0.3,0.5,2.54473715274048,2019-01-31-15:26:42,330
112_CF_monocular_catch_test,112,1205,Right,1,CF,monocular,congruent,misaligned,same,2,0,0.758391024753109,F2,F2017.png,F2067.png,F2017.png,F2067.png,,0.3,0.3,0.5,2.66753401386723,2019-01-31-15:28:20,1
112_CF_monocular_catch_test,112,1205,Right,2,CF,monocular,incongruent,misaligned,same,2,0,0.538280544906456,F4,F4020.png,F4064.png,F4020.png,F4040.png,,0.3,0.3,0.5,2.45019836076517,2019-01-31-15:28:22,2
112_CF_monocular_catch_test,112,1205,Right,3,CF,monocular,congruent,aligned,same,1,1,0.503334493218063,M4,M4136.png,M4134.png,M4136.png,M4134.png,,0.3,0.3,0.5,2.41665990922797,2019-01-31-15:28:24,3
112_CF_monocular_catch_test,112,1205,Right,4,CF,monocular,congruent,misaligned,same,1,1,0.541815284129143,M1,M1125.png,M1186.png,M1125.png,M1186.png,,0.3,0.3,0.5,2.45312407512915,2019-01-31-15:28:27,4
112_CF_monocular_catch_test,112,1205,Right,5,CF,monocular,congruent,aligned,same,2,0,1.53091237056105,F2,F2067.png,F2032.png,F2067.png,F2032.png,,0.3,0.3,0.5,3.44465520810331,2019-01-31-15:28:30,5
112_CF_monocular_catch_test,112,1205,Right,6,CF,monocular,incongruent,misaligned,same,1,1,0.336364511642614,F2,F2032.png,F2016.png,F2032.png,F2017.png,,0.3,0.3,0.5,2.31965114508648,2019-01-31-15:28:33,6
112_CF_monocular_catch_test,112,1205,Right,7,CF,monocular,congruent,misaligned,same,1,1,0.338928574728016,M2,M2141.png,M2198.png,M2141.png,M2198.png,,0.3,0.3,0.5,2.2531398139738,2019-01-31-15:28:35,7
112_CF_monocular_catch_test,112,1205,Right,8,CF,monocular,congruent,aligned,same,1,1,0.360034365425236,F4,F4018.png,F4020.png,F4018.png,F4020.png,,0.3,0.3,0.5,2.26978124716652,2019-01-31-15:28:37,8
112_CF_monocular_catch_test,112,1205,Right,9,CF,monocular,congruent,misaligned,same,1,1,1.04438328192555,F4,F4018.png,F4020.png,F4018.png,F4020.png,,0.3,0.3,0.5,2.96148123057219,2019-01-31-15:28:40,9
112_CF_monocular_catch_test,112,1205,Right,10,CF,monocular,congruent,misaligned,same,1,1,0.421693342297885,M2,M2201.png,M2142.png,M2201.png,M2142.png,,0.3,0.3,0.5,2.33099919423967,2019-01-31-15:28:43,10
112_CF_monocular_catch_test,112,1205,Right,11,CF,monocular,incongruent,aligned,same,1,1,1.12731604455485,F2,F2017.png,F2067.png,F2017.png,F2032.png,,0.3,0.3,0.5,3.04492037342129,2019-01-31-15:28:46,11
112_CF_monocular_catch_test,112,1205,Right,12,CF,monocular,congruent,aligned,different,2,1,0.501068441734787,M4,M4136.png,M4134.png,M4188.png,M4197.png,,0.3,0.3,0.5,2.40328770779138,2019-01-31-15:28:48,12
112_CF_monocular_catch_test,112,1205,Right,13,CF,monocular,incongruent,misaligned,same,1,1,0.467946727432491,F2,F2017.png,F2067.png,F2017.png,F2032.png,,0.3,0.3,0.5,2.37840630511801,2019-01-31-15:28:50,13
112_CF_monocular_catch_test,112,1205,Right,14,CF,monocular,incongruent,misaligned,different,2,1,0.524412912011485,M1,M1119.png,M1125.png,M1122.png,M1125.png,,0.3,0.3,0.5,2.4282830460138,2019-01-31-15:28:53,14
112_CF_monocular_catch_test,112,1205,Right,15,CF,monocular,congruent,aligned,same,1,1,0.52248592998626,F4,F4020.png,F4064.png,F4020.png,F4064.png,,0.3,0.3,0.5,2.42839800800971,2019-01-31-15:28:55,15
112_CF_monocular_catch_test,112,1205,Right,16,CF,monocular,congruent,aligned,different,2,1,0.608421048309992,M3,M3183.png,M3013.png,M3153.png,M3187.png,,0.3,0.3,0.5,2.51991733685054,2019-01-31-15:28:58,16
112_CF_monocular_catch_test,112,1205,Right,17,CF,monocular,incongruent,misaligned,different,2,1,0.499293715924296,M3,M3153.png,M3187.png,M3013.png,M3187.png,,0.3,0.3,0.5,2.40614807173483,2019-01-31-15:29:00,17
112_CF_monocular_catch_test,112,1205,Right,18,CF,monocular,incongruent,misaligned,same,1,1,0.594016926101176,F1,F1046.png,F1002.png,F1046.png,F1015.png,,0.3,0.3,0.5,2.51152647975096,2019-01-31-15:29:03,18
112_CF_monocular_catch_test,112,1205,Right,19,CF,monocular,incongruent,misaligned,different,2,1,0.565098509771133,F4,F4064.png,F4040.png,F4020.png,F4040.png,,0.3,0.3,0.5,2.47014905712354,2019-01-31-15:29:05,19
112_CF_monocular_catch_test,112,1205,Right,20,CF,monocular,incongruent,aligned,same,2,0,0.593290544205047,M2,M2142.png,M2141.png,M2142.png,M2198.png,,0.3,0.3,0.5,2.50320234166634,2019-01-31-15:29:08,20
112_CF_monocular_catch_test,112,1205,Right,21,CF,monocular,incongruent,misaligned,same,1,1,0.756350107178378,M4,M4188.png,M4197.png,M4188.png,M4136.png,,0.3,0.3,0.5,2.66987944387142,2019-01-31-15:29:10,21
112_CF_monocular_catch_test,112,1205,Right,22,CF,monocular,incongruent,misaligned,same,1,1,0.793182767333747,F2,F2067.png,F2032.png,F2067.png,F2016.png,,0.3,0.3,0.5,2.6950674118666,2019-01-31-15:29:13,22
112_CF_monocular_catch_test,112,1205,Right,23,CF,monocular,incongruent,aligned,same,1,1,0.684672671378166,M3,M3183.png,M3013.png,M3183.png,M3153.png,,0.3,0.3,0.5,2.59513601270055,2019-01-31-15:29:16,23
112_CF_monocular_catch_test,112,1205,Right,24,CF,monocular,congruent,misaligned,same,1,1,0.556085968306888,M1,M1186.png,M1122.png,M1186.png,M1122.png,,0.3,0.3,0.5,2.46178009754681,2019-01-31-15:29:18,24
112_CF_monocular_catch_test,112,1205,Right,1,Catch,monocular,incongruent,aligned,Right,4,0,3.26012341307114,M2,M2142.png,M2141.png,M2201.png,M2198.png,M2198.png,0.3,0.3,0.5,3.26720589317097,2019-01-31-15:29:24,25
112_CF_monocular_catch_test,112,1205,Right,25,CF,monocular,congruent,aligned,different,1,0,0.535429076831406,F3,F3112.png,F3062.png,F3079.png,F3047.png,,0.3,0.3,0.5,2.45262419573646,2019-01-31-15:29:26,26
112_CF_monocular_catch_test,112,1205,Right,26,CF,monocular,congruent,misaligned,different,1,0,0.780874648656209,F3,F3079.png,F3047.png,F3112.png,F3062.png,,0.3,0.3,0.5,2.6866457613753,2019-01-31-15:29:29,27
112_CF_monocular_catch_test,112,1205,Right,27,CF,monocular,congruent,misaligned,different,2,1,0.504353412335604,F3,F3062.png,F3079.png,F3047.png,F3112.png,,0.3,0.3,0.5,2.41991853437139,2019-01-31-15:29:31,28
112_CF_monocular_catch_test,112,1205,Right,28,CF,monocular,congruent,aligned,different,2,1,0.575194978624495,F2,F2067.png,F2032.png,F2016.png,F2017.png,,0.3,0.3,0.5,2.47824292906739,2019-01-31-15:29:34,29
112_CF_monocular_catch_test,112,1205,Right,29,CF,monocular,congruent,aligned,different,2,1,0.715044877947093,M2,M2141.png,M2198.png,M2201.png,M2142.png,,0.3,0.3,0.5,2.62841306255677,2019-01-31-15:29:36,30
112_CF_monocular_catch_test,112,1205,Right,30,CF,monocular,incongruent,misaligned,same,1,1,0.465446304023317,F4,F4040.png,F4018.png,F4040.png,F4020.png,,0.3,0.3,0.5,2.37001579016714,2019-01-31-15:29:39,31
112_CF_monocular_catch_test,112,1205,Right,31,CF,monocular,incongruent,misaligned,different,2,1,0.593948496341682,F5,F5068.png,F5078.png,F5076.png,F5078.png,,0.3,0.3,0.5,2.50346271690091,2019-01-31-15:29:41,32
112_CF_monocular_catch_test,112,1205,Right,32,CF,monocular,congruent,misaligned,different,2,1,0.420903320725301,M2,M2142.png,M2141.png,M2198.png,M2201.png,,0.3,0.3,0.5,2.33659366922097,2019-01-31-15:29:43,33
112_CF_monocular_catch_test,112,1205,Right,33,CF,monocular,congruent,aligned,same,1,1,0.574935629836318,F1,F1046.png,F1002.png,F1046.png,F1002.png,,0.3,0.3,0.5,2.47832025469552,2019-01-31-15:29:46,34
112_CF_monocular_catch_test,112,1205,Right,34,CF,monocular,congruent,misaligned,different,1,0,0.651091793390151,F4,F4018.png,F4020.png,F4064.png,F4040.png,,0.3,0.3,0.5,2.55343491731128,2019-01-31-15:29:48,35
112_CF_monocular_catch_test,112,1205,Right,35,CF,monocular,congruent,aligned,same,1,1,0.612149443751832,M5,M5152.png,M5154.png,M5152.png,M5154.png,,0.3,0.3,0.5,2.51985814510863,2019-01-31-15:29:51,36
112_CF_monocular_catch_test,112,1205,Right,36,CF,monocular,incongruent,misaligned,same,1,1,0.806653165475382,M5,M5152.png,M5154.png,M5152.png,M5146.png,,0.3,0.3,0.5,2.71188813102935,2019-01-31-15:29:54,37
112_CF_monocular_catch_test,112,1205,Right,37,CF,monocular,incongruent,aligned,same,2,0,0.457074607256118,F4,F4020.png,F4064.png,F4020.png,F4040.png,,0.3,0.3,0.5,2.36981358022786,2019-01-31-15:29:56,38
112_CF_monocular_catch_test,112,1205,Right,38,CF,monocular,incongruent,misaligned,different,2,1,0.529988568808903,F2,F2017.png,F2067.png,F2016.png,F2067.png,,0.3,0.3,0.5,2.43659041880733,2019-01-31-15:29:59,39
112_CF_monocular_catch_test,112,1205,Right,39,CF,monocular,incongruent,misaligned,different,2,1,0.471790769167683,M2,M2141.png,M2198.png,M2142.png,M2198.png,,0.3,0.3,0.5,2.37835429850088,2019-01-31-15:30:01,40
112_CF_monocular_catch_test,112,1205,Right,40,CF,monocular,congruent,aligned,same,1,1,0.57049419630107,M2,M2198.png,M2201.png,M2198.png,M2201.png,,0.3,0.3,0.5,2.48078714752251,2019-01-31-15:30:18,41
112_CF_monocular_catch_test,112,1205,Right,41,CF,monocular,incongruent,misaligned,different,2,1,0.430687065578013,M3,M3187.png,M3183.png,M3153.png,M3183.png,,0.3,0.3,0.5,2.33672505435879,2019-01-31-15:30:21,42
112_CF_monocular_catch_test,112,1205,Right,42,CF,monocular,incongruent,misaligned,different,2,1,0.680483743655486,F3,F3047.png,F3112.png,F3079.png,F3112.png,,0.3,0.3,0.5,2.58668527956138,2019-01-31-15:30:23,43
112_CF_monocular_catch_test,112,1205,Right,43,CF,monocular,incongruent,misaligned,different,2,1,0.575879960516204,F4,F4020.png,F4064.png,F4018.png,F4064.png,,0.3,0.3,0.5,2.48669503080191,2019-01-31-15:30:26,44
112_CF_monocular_catch_test,112,1205,Right,44,CF,monocular,incongruent,aligned,same,2,0,0.452031333987179,M4,M4136.png,M4134.png,M4136.png,M4188.png,,0.3,0.3,0.5,2.36164785703659,2019-01-31-15:30:28,45
112_CF_monocular_catch_test,112,1205,Right,45,CF,monocular,incongruent,aligned,same,1,1,0.500966139244383,F3,F3079.png,F3047.png,F3079.png,F3112.png,,0.3,0.3,0.5,2.40345022846986,2019-01-31-15:30:30,46
112_CF_monocular_catch_test,112,1205,Right,46,CF,monocular,congruent,aligned,different,2,1,0.707681493684959,M5,M5154.png,M5146.png,M5178.png,M5152.png,,0.3,0.3,0.5,2.61990621701466,2019-01-31-15:30:33,47
112_CF_monocular_catch_test,112,1205,Right,47,CF,monocular,incongruent,misaligned,same,1,1,0.762414010309158,M2,M2201.png,M2142.png,M2201.png,M2141.png,,0.3,0.3,0.5,2.66994821577964,2019-01-31-15:30:36,48
112_CF_monocular_catch_test,112,1205,Right,48,CF,monocular,incongruent,misaligned,same,1,1,0.454701121050675,F3,F3062.png,F3079.png,F3062.png,F3047.png,,0.3,0.3,0.5,2.37007908769442,2019-01-31-15:30:38,49
112_CF_monocular_catch_test,112,1205,Right,49,CF,monocular,congruent,misaligned,different,2,1,0.455515777336586,F2,F2016.png,F2017.png,F2067.png,F2032.png,,0.3,0.3,0.5,2.36162185372791,2019-01-31-15:30:41,50
112_CF_monocular_catch_test,112,1205,Right,50,CF,monocular,congruent,aligned,different,2,1,0.528218633081451,F5,F5068.png,F5078.png,F5033.png,F5076.png,,0.3,0.3,0.5,2.43670469650556,2019-01-31-15:30:43,51
112_CF_monocular_catch_test,112,1205,Right,51,CF,monocular,incongruent,aligned,same,1,1,0.710100827829137,M1,M1186.png,M1122.png,M1186.png,M1119.png,,0.3,0.3,0.5,2.62031953276141,2019-01-31-15:30:46,52
112_CF_monocular_catch_test,112,1205,Right,52,CF,monocular,congruent,misaligned,same,1,1,0.404750818163393,F5,F5033.png,F5076.png,F5033.png,F5076.png,,0.3,0.3,0.5,2.31163494091948,2019-01-31-15:30:48,53
112_CF_monocular_catch_test,112,1205,Right,53,CF,monocular,congruent,aligned,different,2,1,0.511088953555145,M5,M5146.png,M5178.png,M5152.png,M5154.png,,0.3,0.3,0.5,2.42851433860051,2019-01-31-15:30:50,54
112_CF_monocular_catch_test,112,1205,Right,54,CF,monocular,congruent,misaligned,different,2,1,0.533249588994067,F1,F1059.png,F1046.png,F1002.png,F1015.png,,0.3,0.3,0.5,2.44499222466857,2019-01-31-15:30:53,55
112_CF_monocular_catch_test,112,1205,Right,55,CF,monocular,congruent,misaligned,same,1,1,0.507104630813046,F4,F4064.png,F4040.png,F4064.png,F4040.png,,0.3,0.3,0.5,2.41164674505285,2019-01-31-15:30:55,56
112_CF_monocular_catch_test,112,1205,Right,56,CF,monocular,incongruent,misaligned,same,1,1,0.881503004922024,F5,F5078.png,F5033.png,F5078.png,F5076.png,,0.3,0.3,0.5,2.79493688210073,2019-01-31-15:30:58,57
112_CF_monocular_catch_test,112,1205,Right,57,CF,monocular,congruent,misaligned,same,1,1,0.601231475636723,F5,F5078.png,F5033.png,F5078.png,F5033.png,,0.3,0.3,0.5,2.50336007226178,2019-01-31-15:31:00,58
112_CF_monocular_catch_test,112,1205,Right,58,CF,monocular,incongruent,aligned,different,2,1,0.788106647780296,F4,F4064.png,F4040.png,F4020.png,F4040.png,,0.3,0.3,0.5,2.7032868524193,2019-01-31-15:31:03,59
112_CF_monocular_catch_test,112,1205,Right,59,CF,monocular,congruent,misaligned,same,1,1,0.415612673875785,M3,M3013.png,M3153.png,M3013.png,M3153.png,,0.3,0.3,0.5,2.31989167569077,2019-01-31-15:31:06,60
112_CF_monocular_catch_test,112,1205,Right,60,CF,monocular,incongruent,misaligned,different,2,1,0.514058462965068,F2,F2032.png,F2016.png,F2067.png,F2016.png,,0.3,0.3,0.5,2.42004718231897,2019-01-31-15:31:08,61
112_CF_monocular_catch_test,112,1205,Right,61,CF,monocular,congruent,aligned,different,1,0,0.568241488621197,F4,F4018.png,F4020.png,F4064.png,F4040.png,,0.3,0.3,0.5,2.48671248039068,2019-01-31-15:31:10,62
112_CF_monocular_catch_test,112,1205,Right,62,CF,monocular,congruent,aligned,different,2,1,0.556012406315631,F1,F1015.png,F1059.png,F1046.png,F1002.png,,0.3,0.3,0.5,2.46982127857586,2019-01-31-15:31:13,63
112_CF_monocular_catch_test,112,1205,Right,63,CF,monocular,congruent,aligned,same,1,1,0.576857137480602,F5,F5076.png,F5068.png,F5076.png,F5068.png,,0.3,0.3,0.5,2.48677817295948,2019-01-31-15:31:15,64
112_CF_monocular_catch_test,112,1205,Right,64,CF,monocular,congruent,aligned,different,2,1,0.524684236007715,F3,F3062.png,F3079.png,F3047.png,F3112.png,,0.3,0.3,0.5,2.42834634354153,2019-01-31-15:31:18,65
112_CF_monocular_catch_test,112,1205,Right,65,CF,monocular,congruent,misaligned,different,2,1,0.522442819237767,M1,M1122.png,M1119.png,M1125.png,M1186.png,,0.3,0.3,0.5,2.43664550476365,2019-01-31-15:31:20,66
112_CF_monocular_catch_test,112,1205,Right,66,CF,monocular,incongruent,misaligned,same,1,1,0.432645867441579,M5,M5154.png,M5146.png,M5154.png,M5178.png,,0.3,0.3,0.5,2.33686909900257,2019-01-31-15:31:23,67
112_CF_monocular_catch_test,112,1205,Right,2,Catch,monocular,incongruent,aligned,Right,4,0,2.14560586853599,M3,M3187.png,M3183.png,M3153.png,M3013.png,M3013.png,0.3,0.3,0.5,2.15031691532317,2019-01-31-15:31:27,68
112_CF_monocular_catch_test,112,1205,Right,67,CF,monocular,incongruent,aligned,same,1,1,0.74293103135642,F2,F2016.png,F2017.png,F2016.png,F2067.png,,0.3,0.3,0.5,2.6452833932949,2019-01-31-15:31:30,69
112_CF_monocular_catch_test,112,1205,Right,68,CF,monocular,incongruent,misaligned,different,2,1,0.676369404370462,F4,F4018.png,F4020.png,F4040.png,F4020.png,,0.3,0.3,0.5,2.57830776626452,2019-01-31-15:31:32,70
112_CF_monocular_catch_test,112,1205,Right,69,CF,monocular,incongruent,aligned,same,1,1,0.396791410696778,M5,M5178.png,M5152.png,M5178.png,M5154.png,,0.3,0.3,0.5,2.30340420945663,2019-01-31-15:31:34,71
112_CF_monocular_catch_test,112,1205,Right,70,CF,monocular,congruent,misaligned,different,2,1,0.41546794493479,M1,M1119.png,M1125.png,M1186.png,M1122.png,,0.3,0.3,0.5,2.32820520716268,2019-01-31-15:31:37,72
112_CF_monocular_catch_test,112,1205,Right,71,CF,monocular,congruent,aligned,same,1,1,0.36166265155066,F4,F4040.png,F4018.png,F4040.png,F4018.png,,0.3,0.3,0.5,2.27826482659043,2019-01-31-15:31:39,73
112_CF_monocular_catch_test,112,1205,Right,72,CF,monocular,incongruent,misaligned,same,1,1,0.406094436489639,M1,M1122.png,M1119.png,M1122.png,M1125.png,,0.3,0.3,0.5,2.31163117728283,2019-01-31-15:31:41,74
112_CF_monocular_catch_test,112,1205,Right,73,CF,monocular,incongruent,misaligned,different,2,1,0.488555033778994,F5,F5033.png,F5076.png,F5078.png,F5076.png,,0.3,0.3,0.5,2.40313374083257,2019-01-31-15:31:44,75
112_CF_monocular_catch_test,112,1205,Right,74,CF,monocular,congruent,aligned,same,1,1,0.472022061754615,M3,M3153.png,M3187.png,M3153.png,M3187.png,,0.3,0.3,0.5,2.37858935472445,2019-01-31-15:31:46,76
112_CF_monocular_catch_test,112,1205,Right,75,CF,monocular,incongruent,misaligned,same,1,1,0.495787032902854,M1,M1119.png,M1125.png,M1119.png,M1186.png,,0.3,0.3,0.5,2.41158413182302,2019-01-31-15:31:49,77
112_CF_monocular_catch_test,112,1205,Right,76,CF,monocular,congruent,aligned,different,2,1,0.478952627788431,M1,M1186.png,M1122.png,M1119.png,M1125.png,,0.3,0.3,0.5,2.38694668124231,2019-01-31-15:31:51,78
112_CF_monocular_catch_test,112,1205,Right,77,CF,monocular,congruent,misaligned,different,1,0,0.430616925074901,F4,F4020.png,F4064.png,F4040.png,F4018.png,,0.3,0.3,0.5,2.34505329822878,2019-01-31-15:31:53,79
112_CF_monocular_catch_test,112,1205,Right,78,CF,monocular,incongruent,aligned,different,2,1,0.455982468295815,F4,F4040.png,F4018.png,F4064.png,F4018.png,,0.3,0.3,0.5,2.36994154387799,2019-01-31-15:31:56,80
112_CF_monocular_catch_test,112,1205,Right,79,CF,monocular,congruent,aligned,different,1,0,0.528916958776335,F5,F5076.png,F5068.png,F5078.png,F5033.png,,0.3,0.3,0.5,2.43661265847913,2019-01-31-15:31:58,81
112_CF_monocular_catch_test,112,1205,Right,80,CF,monocular,congruent,misaligned,same,2,0,0.598978425807672,M3,M3153.png,M3187.png,M3153.png,M3187.png,,0.3,0.3,0.5,2.50822816534674,2019-01-31-15:32:14,82
112_CF_monocular_catch_test,112,1205,Right,81,CF,monocular,congruent,aligned,same,2,0,0.450166280893882,M5,M5146.png,M5178.png,M5146.png,M5178.png,,0.3,0.3,0.5,2.35330592721493,2019-01-31-15:32:16,83
112_CF_monocular_catch_test,112,1205,Right,82,CF,monocular,incongruent,aligned,same,1,1,0.467006160389246,F3,F3062.png,F3079.png,F3062.png,F3047.png,,0.3,0.3,0.5,2.37827491997996,2019-01-31-15:32:18,84
112_CF_monocular_catch_test,112,1205,Right,83,CF,monocular,congruent,misaligned,different,2,1,0.451159881000422,M5,M5146.png,M5178.png,M5152.png,M5154.png,,0.3,0.3,0.5,2.36157429504556,2019-01-31-15:32:21,85
112_CF_monocular_catch_test,112,1205,Right,84,CF,monocular,incongruent,misaligned,different,2,1,1.01187846190442,M3,M3183.png,M3013.png,M3187.png,M3013.png,,0.3,0.3,0.5,2.92821957741216,2019-01-31-15:32:24,86
112_CF_monocular_catch_test,112,1205,Right,85,CF,monocular,incongruent,aligned,same,1,1,0.59035011744254,F1,F1015.png,F1059.png,F1015.png,F1046.png,,0.3,0.3,0.5,2.49550365158302,2019-01-31-15:32:26,87
112_CF_monocular_catch_test,112,1205,Right,86,CF,monocular,congruent,aligned,different,2,1,0.513777900951482,M4,M4188.png,M4197.png,M4136.png,M4134.png,,0.3,0.3,0.5,2.4200403393429,2019-01-31-15:32:29,88
112_CF_monocular_catch_test,112,1205,Right,3,Catch,monocular,incongruent,aligned,Right,4,0,1.71515120410731,F3,F3062.png,F3079.png,F3112.png,F3047.png,F3047.png,0.3,0.3,0.5,1.72521311593209,2019-01-31-15:32:32,89
112_CF_monocular_catch_test,112,1205,Right,87,CF,monocular,congruent,aligned,same,1,1,1.56536230649363,M5,M5178.png,M5152.png,M5178.png,M5152.png,,0.3,0.3,0.5,3.47151320437752,2019-01-31-15:32:36,90
112_CF_monocular_catch_test,112,1205,Right,88,CF,monocular,incongruent,aligned,different,2,1,0.577436737542939,M4,M4134.png,M4188.png,M4136.png,M4188.png,,0.3,0.3,0.5,2.49482653911355,2019-01-31-15:32:38,91
112_CF_monocular_catch_test,112,1205,Right,89,CF,monocular,congruent,misaligned,same,1,1,0.581021088341458,M4,M4188.png,M4197.png,M4188.png,M4197.png,,0.3,0.3,0.5,2.49496271433463,2019-01-31-15:32:41,92
112_CF_monocular_catch_test,112,1205,Right,90,CF,monocular,incongruent,misaligned,same,1,1,0.400490723490748,F3,F3112.png,F3062.png,F3112.png,F3079.png,,0.3,0.3,0.5,2.31141904502874,2019-01-31-15:32:43,93
112_CF_monocular_catch_test,112,1205,Right,4,Catch,monocular,incongruent,aligned,Left,5,0,3.17590280236982,M4,M4136.png,M4134.png,M4197.png,M4188.png,M4188.png,0.3,0.3,0.5,3.18370790072913,2019-01-31-15:32:48,94
112_CF_monocular_catch_test,112,1205,Right,91,CF,monocular,incongruent,aligned,different,2,1,0.438494216829895,M3,M3013.png,M3153.png,M3183.png,M3153.png,,0.3,0.3,0.5,2.34627271654199,2019-01-31-15:32:51,95
112_CF_monocular_catch_test,112,1205,Right,92,CF,monocular,congruent,aligned,different,2,1,0.463672604659223,F5,F5033.png,F5076.png,F5068.png,F5078.png,,0.3,0.3,0.5,2.37811753153301,2019-01-31-15:32:53,96
112_CF_monocular_catch_test,112,1205,Right,93,CF,monocular,congruent,misaligned,different,1,0,0.495828775055998,F3,F3047.png,F3112.png,F3062.png,F3079.png,,0.3,0.3,0.5,2.41162382108359,2019-01-31-15:32:56,97
112_CF_monocular_catch_test,112,1205,Right,94,CF,monocular,incongruent,misaligned,same,1,1,0.606598763816692,F2,F2016.png,F2017.png,F2016.png,F2067.png,,0.3,0.3,0.5,2.51976097485067,2019-01-31-15:32:58,98
112_CF_monocular_catch_test,112,1205,Right,95,CF,monocular,incongruent,aligned,different,2,1,0.505415442201866,F3,F3079.png,F3047.png,F3062.png,F3047.png,,0.3,0.3,0.5,2.41160158141156,2019-01-31-15:33:01,99
112_CF_monocular_catch_test,112,1205,Right,96,CF,monocular,incongruent,aligned,same,2,0,0.527947993382895,M2,M2198.png,M2201.png,M2198.png,M2142.png,,0.3,0.3,0.5,2.44493713871225,2019-01-31-15:33:03,100
112_CF_monocular_catch_test,112,1205,Right,97,CF,monocular,congruent,aligned,same,1,1,0.701430093013187,F2,F2016.png,F2017.png,F2016.png,F2017.png,,0.3,0.3,0.5,2.61139047560391,2019-01-31-15:33:06,101
112_CF_monocular_catch_test,112,1205,Right,98,CF,monocular,incongruent,misaligned,different,2,1,0.564241427034176,M4,M4188.png,M4197.png,M4134.png,M4197.png,,0.3,0.3,0.5,2.47833017701078,2019-01-31-15:33:08,102
112_CF_monocular_catch_test,112,1205,Right,99,CF,monocular,congruent,misaligned,same,1,1,0.616406459085283,M4,M4134.png,M4188.png,M4134.png,M4188.png,,0.3,0.3,0.5,2.52814772616466,2019-01-31-15:33:11,103
112_CF_monocular_catch_test,112,1205,Right,100,CF,monocular,incongruent,aligned,different,2,1,0.546421633383943,F1,F1046.png,F1002.png,F1059.png,F1002.png,,0.3,0.3,0.5,2.46148550743237,2019-01-31-15:33:13,104
112_CF_monocular_catch_test,112,1205,Right,101,CF,monocular,incongruent,misaligned,same,1,1,0.83924044335663,F4,F4018.png,F4020.png,F4018.png,F4064.png,,0.3,0.3,0.5,2.75312253545962,2019-01-31-15:33:16,105
112_CF_monocular_catch_test,112,1205,Right,102,CF,monocular,congruent,aligned,same,2,0,0.624354233492795,F1,F1002.png,F1015.png,F1002.png,F1015.png,,0.3,0.3,0.5,2.53658511550066,2019-01-31-15:33:18,106
112_CF_monocular_catch_test,112,1205,Right,103,CF,monocular,congruent,misaligned,same,1,1,0.586131422774542,F1,F1015.png,F1059.png,F1015.png,F1059.png,,0.3,0.3,0.5,2.50315204579329,2019-01-31-15:33:21,107
112_CF_monocular_catch_test,112,1205,Right,104,CF,monocular,incongruent,aligned,different,2,1,0.549305263446058,F2,F2016.png,F2017.png,F2032.png,F2017.png,,0.3,0.3,0.5,2.46156249091155,2019-01-31-15:33:23,108
112_CF_monocular_catch_test,112,1205,Right,105,CF,monocular,congruent,aligned,different,1,0,0.618103859267649,M1,M1122.png,M1119.png,M1125.png,M1186.png,,0.3,0.3,0.5,2.52783945009878,2019-01-31-15:33:26,109
112_CF_monocular_catch_test,112,1205,Right,106,CF,monocular,incongruent,aligned,same,1,1,0.540280404625264,F2,F2032.png,F2016.png,F2032.png,F2017.png,,0.3,0.3,0.5,2.4532144024115,2019-01-31-15:33:28,110
112_CF_monocular_catch_test,112,1205,Right,107,CF,monocular,congruent,aligned,same,1,1,0.60932876906827,M3,M3183.png,M3013.png,M3183.png,M3013.png,,0.3,0.3,0.5,2.51990775668446,2019-01-31-15:33:31,111
112_CF_monocular_catch_test,112,1205,Right,108,CF,monocular,congruent,aligned,same,1,1,0.476234939893402,M5,M5154.png,M5146.png,M5154.png,M5146.png,,0.3,0.3,0.5,2.37819759435206,2019-01-31-15:33:33,112
112_CF_monocular_catch_test,112,1205,Right,109,CF,monocular,congruent,misaligned,different,2,1,0.452385800140746,M3,M3013.png,M3153.png,M3187.png,M3183.png,,0.3,0.3,0.5,2.36162938100142,2019-01-31-15:33:36,113
112_CF_monocular_catch_test,112,1205,Right,110,CF,monocular,congruent,misaligned,same,1,1,0.781141524717896,F5,F5076.png,F5068.png,F5076.png,F5068.png,,0.3,0.3,0.5,2.68694035148928,2019-01-31-15:33:38,114
112_CF_monocular_catch_test,112,1205,Right,111,CF,monocular,incongruent,aligned,different,2,1,0.552854715067042,F4,F4018.png,F4020.png,F4040.png,F4020.png,,0.3,0.3,0.5,2.46154606776918,2019-01-31-15:33:41,115
112_CF_monocular_catch_test,112,1205,Right,112,CF,monocular,congruent,aligned,different,2,1,0.565506693285897,M2,M2201.png,M2142.png,M2141.png,M2198.png,,0.3,0.3,0.5,2.4782005026168,2019-01-31-15:33:43,116
112_CF_monocular_catch_test,112,1205,Right,113,CF,monocular,incongruent,aligned,same,1,1,0.561667783782923,M4,M4188.png,M4197.png,M4188.png,M4136.png,,0.3,0.3,0.5,2.47804003483088,2019-01-31-15:33:46,117
112_CF_monocular_catch_test,112,1205,Right,114,CF,monocular,incongruent,misaligned,different,1,0,0.685784312820033,F2,F2067.png,F2032.png,F2017.png,F2032.png,,0.3,0.3,0.5,2.60334826812823,2019-01-31-15:33:48,118
112_CF_monocular_catch_test,112,1205,Right,115,CF,monocular,incongruent,aligned,different,2,1,0.581265382582387,F5,F5076.png,F5068.png,F5033.png,F5068.png,,0.3,0.3,0.5,2.48789392018716,2019-01-31-15:33:51,119
112_CF_monocular_catch_test,112,1205,Right,116,CF,monocular,congruent,misaligned,same,1,1,0.560657418384835,F1,F1002.png,F1015.png,F1002.png,F1015.png,,0.3,0.3,0.5,2.47821418856847,2019-01-31-15:33:53,120
112_CF_monocular_catch_test,112,1205,Right,117,CF,monocular,incongruent,misaligned,different,2,1,0.484839639991151,F3,F3112.png,F3062.png,F3047.png,F3062.png,,0.3,0.3,0.5,2.40312313421964,2019-01-31-15:33:56,121
112_CF_monocular_catch_test,112,1205,Right,118,CF,monocular,incongruent,aligned,same,1,1,0.500371484634798,F5,F5068.png,F5078.png,F5068.png,F5033.png,,0.3,0.3,0.5,2.40315905984335,2019-01-31-15:33:58,122
112_CF_monocular_catch_test,112,1205,Right,119,CF,monocular,incongruent,aligned,different,2,1,0.507540870529283,F4,F4020.png,F4064.png,F4018.png,F4064.png,,0.3,0.3,0.5,2.41152186074169,2019-01-31-15:34:01,123
112_CF_monocular_catch_test,112,1205,Right,120,CF,monocular,incongruent,aligned,same,1,1,5.22441137234227,F4,F4040.png,F4018.png,F4040.png,F4020.png,,0.3,0.3,0.5,7.13360773666864,2019-01-31-15:34:23,124
112_CF_monocular_catch_test,112,1205,Right,121,CF,monocular,congruent,misaligned,different,2,1,0.393763051693895,F5,F5033.png,F5076.png,F5068.png,F5078.png,,0.3,0.3,0.5,2.31135951113811,2019-01-31-15:34:25,125
112_CF_monocular_catch_test,112,1205,Right,122,CF,monocular,incongruent,misaligned,same,2,0,0.908487254102056,M5,M5146.png,M5178.png,M5146.png,M5152.png,,0.3,0.3,0.5,2.81987371287914,2019-01-31-15:34:28,126
112_CF_monocular_catch_test,112,1205,Right,123,CF,monocular,congruent,aligned,different,2,1,0.610989901478661,M3,M3153.png,M3187.png,M3183.png,M3013.png,,0.3,0.3,0.5,2.52807826995877,2019-01-31-15:34:30,127
112_CF_monocular_catch_test,112,1205,Right,124,CF,monocular,congruent,misaligned,same,1,1,0.445141141511158,F5,F5068.png,F5078.png,F5068.png,F5078.png,,0.3,0.3,0.5,2.36156505702775,2019-01-31-15:34:33,128
112_CF_monocular_catch_test,112,1205,Right,125,CF,monocular,congruent,aligned,different,2,1,0.541989780015683,F1,F1002.png,F1015.png,F1059.png,F1046.png,,0.3,0.3,0.5,2.4531897676984,2019-01-31-15:34:35,129
112_CF_monocular_catch_test,112,1205,Right,126,CF,monocular,incongruent,aligned,same,1,1,0.563168106257763,M1,M1119.png,M1125.png,M1119.png,M1186.png,,0.3,0.3,0.5,2.47820460840194,2019-01-31-15:34:38,130
112_CF_monocular_catch_test,112,1205,Right,127,CF,monocular,congruent,misaligned,same,1,1,0.351213427287348,M3,M3183.png,M3013.png,M3183.png,M3013.png,,0.3,0.3,0.5,2.26153306611513,2019-01-31-15:34:40,131
112_CF_monocular_catch_test,112,1205,Right,128,CF,monocular,incongruent,misaligned,different,2,1,0.524130297104875,M4,M4136.png,M4134.png,M4197.png,M4134.png,,0.3,0.3,0.5,2.4366205279016,2019-01-31-15:34:42,132
112_CF_monocular_catch_test,112,1205,Right,129,CF,monocular,congruent,misaligned,same,1,1,0.418107965052968,F3,F3047.png,F3112.png,F3047.png,F3112.png,,0.3,0.3,0.5,2.32792225010735,2019-01-31-15:34:45,133
112_CF_monocular_catch_test,112,1205,Right,130,CF,monocular,congruent,misaligned,same,1,1,0.500073473032899,M1,M1122.png,M1119.png,M1122.png,M1119.png,,0.3,0.3,0.5,2.41164092852341,2019-01-31-15:34:47,134
112_CF_monocular_catch_test,112,1205,Right,131,CF,monocular,congruent,aligned,same,1,1,0.522861951514187,F5,F5078.png,F5033.png,F5078.png,F5033.png,,0.3,0.3,0.5,2.43643268821188,2019-01-31-15:34:50,135
112_CF_monocular_catch_test,112,1205,Right,132,CF,monocular,congruent,aligned,same,1,1,0.688741162724455,F1,F1059.png,F1046.png,F1059.png,F1046.png,,0.3,0.3,0.5,2.60315119042116,2019-01-31-15:34:52,136
112_CF_monocular_catch_test,112,1205,Right,133,CF,monocular,incongruent,misaligned,same,1,1,0.887821808906665,M4,M4136.png,M4134.png,M4136.png,M4188.png,,0.3,0.3,0.5,2.80332602845647,2019-01-31-15:34:55,137
112_CF_monocular_catch_test,112,1205,Right,134,CF,monocular,congruent,aligned,same,1,1,0.527218532147799,M1,M1119.png,M1125.png,M1119.png,M1125.png,,0.3,0.3,0.5,2.43652951632112,2019-01-31-15:34:57,138
112_CF_monocular_catch_test,112,1205,Right,135,CF,monocular,incongruent,misaligned,different,2,1,0.700754006990337,F4,F4040.png,F4018.png,F4064.png,F4018.png,,0.3,0.3,0.5,2.61157318306186,2019-01-31-15:35:00,139
112_CF_monocular_catch_test,112,1205,Right,5,Catch,monocular,congruent,aligned,Right,5,1,2.27495111549069,M1,M1122.png,M1119.png,M1125.png,M1122.png,M1122.png,0.3,0.3,0.5,2.28363656270494,2019-01-31-15:35:04,140
112_CF_monocular_catch_test,112,1205,Right,136,CF,monocular,incongruent,misaligned,same,1,1,0.67455841078754,F4,F4064.png,F4040.png,F4064.png,F4018.png,,0.3,0.3,0.5,2.58348447756453,2019-01-31-15:35:07,141
112_CF_monocular_catch_test,112,1205,Right,137,CF,monocular,congruent,aligned,different,2,1,0.642688618933789,F4,F4064.png,F4040.png,F4018.png,F4020.png,,0.3,0.3,0.5,2.54489077755034,2019-01-31-15:35:10,142
112_CF_monocular_catch_test,112,1205,Right,138,CF,monocular,incongruent,misaligned,different,2,1,0.739782920274592,M3,M3013.png,M3153.png,M3183.png,M3153.png,,0.3,0.3,0.5,2.65322261398251,2019-01-31-15:35:12,143
112_CF_monocular_catch_test,112,1205,Right,139,CF,monocular,congruent,aligned,same,1,1,0.673028663515652,F3,F3079.png,F3047.png,F3079.png,F3047.png,,0.3,0.3,0.5,2.58651249441891,2019-01-31-15:35:15,144
112_CF_monocular_catch_test,112,1205,Right,140,CF,monocular,congruent,aligned,different,2,1,0.64867759147819,M2,M2198.png,M2201.png,M2142.png,M2141.png,,0.3,0.3,0.5,2.56151476115429,2019-01-31-15:35:17,145
112_CF_monocular_catch_test,112,1205,Right,6,Catch,monocular,incongruent,misaligned,Left,5,0,1.80031511904235,M2,M2142.png,M2141.png,M2201.png,M2198.png,M2198.png,0.3,0.3,0.5,1.80858896125346,2019-01-31-15:35:21,146
112_CF_monocular_catch_test,112,1205,Right,141,CF,monocular,congruent,misaligned,same,1,1,0.515755178849759,F3,F3112.png,F3062.png,F3112.png,F3062.png,,0.3,0.3,0.5,2.42361716286814,2019-01-31-15:35:24,147
112_CF_monocular_catch_test,112,1205,Right,142,CF,monocular,congruent,misaligned,same,2,0,0.585880285557778,F4,F4020.png,F4064.png,F4020.png,F4064.png,,0.3,0.3,0.5,2.50309798628359,2019-01-31-15:35:26,148
112_CF_monocular_catch_test,112,1205,Right,143,CF,monocular,incongruent,aligned,different,2,1,0.644992648933112,F1,F1002.png,F1015.png,F1046.png,F1015.png,,0.3,0.3,0.5,2.56140698428362,2019-01-31-15:35:29,149
112_CF_monocular_catch_test,112,1205,Right,144,CF,monocular,incongruent,aligned,same,1,1,0.645764878768659,M4,M4134.png,M4188.png,M4134.png,M4197.png,,0.3,0.3,0.5,2.5616379347216,2019-01-31-15:35:31,150
112_CF_monocular_catch_test,112,1205,Right,145,CF,monocular,incongruent,misaligned,different,2,1,0.414756275436957,F3,F3062.png,F3079.png,F3112.png,F3079.png,,0.3,0.3,0.5,2.3279468848209,2019-01-31-15:35:34,151
112_CF_monocular_catch_test,112,1205,Right,146,CF,monocular,congruent,misaligned,different,2,1,0.497135099163643,F2,F2017.png,F2067.png,F2032.png,F2016.png,,0.3,0.3,0.5,2.40606664032111,2019-01-31-15:35:36,152
112_CF_monocular_catch_test,112,1205,Right,147,CF,monocular,congruent,aligned,different,2,1,0.672264645251744,M3,M3187.png,M3183.png,M3013.png,M3153.png,,0.3,0.3,0.5,2.57821299104762,2019-01-31-15:35:39,153
