Name,Experiment,Participant,Trial,SubTrial,Condition,Congruency,Alignment,SameDifferent,FaceGroup,StudyUpper,StudyLower,TargetUpper,TargetLower,thisResponse,isCorrect,reactionTime,studyDuration,targetDuration,maskDuration,trialEndTime,RT.Z,RT.Within3Z,Stimuli,Exp_D,Con_D,Ali_D,Exp_Con,Exp_Ali,Con_Ali,Exp_Con_Ali,check
603,CFS,603,1,NA,Complete,incongruent,misaligned,D,M3,M3183.png,M3187.png,M3153.png,M3187.png,D,1,0.165443077,0.3,0.3,0.5,2017-04-03-10:07:07,0.16506535210251128,1,M3183.png-M3187.png-M3153.png-M3187.png,0,1,1,0,0,1,0,30400
603,CFS,603,2,NA,Complete,congruent,aligned,D,F3,F3047.png,F3062.png,F3079.png,F3112.png,D,1,0.230990339,0.3,0.3,0.5,2017-04-03-10:07:10,0.6431445640707282,1,F3047.png-F3062.png-F3079.png-F3112.png,0,0,0,0,0,0,0,30400
603,CFS,603,3,NA,Complete,congruent,misaligned,D,M1,M1122.png,M1119.png,M1186.png,M1125.png,D,1,0.361435311,0.3,0.3,0.5,2017-04-03-10:07:12,1.8653879051672335,1,M1122.png-M1119.png-M1186.png-M1125.png,0,0,1,0,0,0,0,30400
603,CFS,603,4,NA,Complete,congruent,aligned,S,F4,F4020.png,F4018.png,F4020.png,F4018.png,S,1,0.301100529,0.3,0.3,0.5,2017-04-03-10:07:15,2.0462343914453553,1,F4020.png-F4018.png-F4020.png-F4018.png,0,0,0,0,0,0,0,30400
603,CFS,603,5,NA,Complete,incongruent,aligned,S,F4,F4020.png,F4018.png,F4020.png,F4040.png,S,1,0.175828733,0.3,0.3,0.5,2017-04-03-10:07:17,0.6423192501531086,1,F4020.png-F4018.png-F4020.png-F4040.png,0,1,0,0,0,0,0,30400
603,CFS,603,6,NA,Complete,congruent,misaligned,D,M4,M4134.png,M4188.png,M4136.png,M4197.png,D,1,0.430582153,0.3,0.3,0.5,2017-04-03-10:07:20,2.491864886752023,1,M4134.png-M4188.png-M4136.png-M4197.png,0,0,1,0,0,0,0,30400
603,CFS,603,7,NA,Complete,incongruent,misaligned,S,F1,F1059.png,F1002.png,F1059.png,F1015.png,S,1,0.141455032,0.3,0.3,0.5,2017-04-03-10:07:22,0.4442439068478195,1,F1059.png-F1002.png-F1059.png-F1015.png,0,1,1,0,0,1,0,30400
603,CFS,603,8,NA,Complete,congruent,aligned,S,F1,F1002.png,F1015.png,F1002.png,F1015.png,D,0,0.411570739,0.3,0.3,0.5,2017-04-03-10:07:25,1.1457193751034371,1,F1002.png-F1015.png-F1002.png-F1015.png,0,0,0,0,0,0,0,30400
603,CFS,603,9,NA,Complete,incongruent,aligned,S,F4,F4018.png,F4040.png,F4018.png,F4064.png,S,1,0.196049844,0.3,0.3,0.5,2017-04-03-10:07:27,0.8778558054703942,1,F4018.png-F4040.png-F4018.png-F4064.png,0,1,0,0,0,0,0,30400
603,CFS,603,10,NA,Complete,incongruent,aligned,S,F2,F2017.png,F2016.png,F2017.png,F2032.png,S,1,0.225365375,0.3,0.3,0.5,2017-04-03-10:07:30,1.2193246391579742,1,F2017.png-F2016.png-F2017.png-F2032.png,0,1,0,0,0,0,0,30400
603,CFS,603,11,NA,Complete,congruent,misaligned,S,F1,F1002.png,F1015.png,F1002.png,F1015.png,S,1,0.296118124,0.3,0.3,0.5,2017-04-03-10:07:32,2.292857040079581,1,F1002.png-F1015.png-F1002.png-F1015.png,0,0,1,0,0,0,0,30400
603,CFS,603,12,NA,Complete,congruent,aligned,D,M1,M1122.png,M1119.png,M1186.png,M1125.png,D,1,0.216196066,0.3,0.3,0.5,2017-04-03-10:07:35,0.4817957482224624,1,M1122.png-M1119.png-M1186.png-M1125.png,0,0,0,0,0,0,0,30400
603,CFS,603,13,NA,Complete,incongruent,misaligned,S,F3,F3047.png,F3062.png,F3047.png,F3079.png,S,1,0.146396208,0.3,0.3,0.5,2017-04-03-10:07:37,0.4982193516538942,1,F3047.png-F3062.png-F3047.png-F3079.png,0,1,1,0,0,1,0,30400
603,CFS,603,14,NA,Complete,incongruent,misaligned,S,F2,F2017.png,F2016.png,F2017.png,F2032.png,S,1,0.335531882,0.3,0.3,0.5,2017-04-03-10:07:39,2.564262361019834,1,F2017.png-F2016.png-F2017.png-F2032.png,0,1,1,0,0,1,0,30400
603,CFS,603,15,NA,Complete,incongruent,misaligned,S,F5,F5078.png,F5068.png,F5078.png,F5076.png,S,1,0.195993389,0.3,0.3,0.5,2017-04-03-10:07:42,1.0399992651000862,1,F5078.png-F5068.png-F5078.png-F5076.png,0,1,1,0,0,1,0,30400
603,CFS,603,16,NA,Complete,incongruent,misaligned,D,F2,F2016.png,F2032.png,F2017.png,F2032.png,D,1,0.256179164,0.3,0.3,0.5,2017-04-03-10:07:44,1.1433085169243287,1,F2016.png-F2032.png-F2017.png-F2032.png,0,1,1,0,0,1,0,30400
603,CFS,603,17,NA,Complete,incongruent,aligned,D,M4,M4134.png,M4188.png,M4197.png,M4188.png,D,1,0.150849989,0.3,0.3,0.5,2017-04-03-10:07:47,-0.07402688015583568,1,M4134.png-M4188.png-M4197.png-M4188.png,0,1,0,0,0,0,0,30400
603,CFS,603,18,NA,Complete,incongruent,misaligned,S,M3,M3187.png,M3013.png,M3187.png,M3153.png,S,1,0.15054479,0.3,0.3,0.5,2017-04-03-10:07:49,0.543536814291225,1,M3187.png-M3013.png-M3187.png-M3153.png,0,1,1,0,0,1,0,30400
603,CFS,603,19,NA,Complete,incongruent,misaligned,D,M1,M1122.png,M1119.png,M1125.png,M1119.png,D,1,0.081344958,0.3,0.3,0.5,2017-04-03-10:07:51,-0.7416126059862236,1,M1122.png-M1119.png-M1125.png-M1119.png,0,1,1,0,0,1,0,30400
603,CFS,603,20,NA,Complete,incongruent,aligned,S,M3,M3183.png,M3187.png,M3183.png,M3013.png,S,1,0.29087021,0.3,0.3,0.5,2017-04-03-10:07:54,1.982328372856244,1,M3183.png-M3187.png-M3183.png-M3013.png,0,1,0,0,0,0,0,30400
603,CFS,603,21,NA,Complete,incongruent,misaligned,D,M5,M5152.png,M5154.png,M5146.png,M5154.png,D,1,0.421070009,0.3,0.3,0.5,2017-04-03-10:07:57,2.9210283569141633,1,M5152.png-M5154.png-M5146.png-M5154.png,0,1,1,0,0,1,0,30400
603,CFS,603,22,NA,Complete,incongruent,aligned,D,F1,F1046.png,F1059.png,F1015.png,F1059.png,D,1,0.181177475,0.3,0.3,0.5,2017-04-03-10:07:59,0.2087954839762483,1,F1046.png-F1059.png-F1015.png-F1059.png,0,1,0,0,0,0,0,30400
603,CFS,603,23,NA,Complete,incongruent,aligned,D,M1,M1122.png,M1119.png,M1125.png,M1119.png,D,1,0.210668658,0.3,0.3,0.5,2017-04-03-10:08:01,0.4838188109052236,1,M1122.png-M1119.png-M1125.png-M1119.png,0,1,0,0,0,0,0,30400
603,CFS,603,24,NA,Complete,incongruent,aligned,D,F2,F2032.png,F2067.png,F2016.png,F2067.png,D,1,0.401171868,0.3,0.3,0.5,2017-04-03-10:08:04,2.2603778117716598,1,F2032.png-F2067.png-F2016.png-F2067.png,0,1,0,0,0,0,0,30400
603,CFS,603,25,NA,Complete,incongruent,misaligned,D,M3,M3153.png,M3183.png,M3013.png,M3183.png,S,0,0.465979399,0.3,0.3,0.5,2017-04-03-10:08:07,2.0464324589689595,1,M3153.png-M3183.png-M3013.png-M3183.png,0,1,1,0,0,1,0,30400
603,CFS,603,26,NA,Complete,incongruent,aligned,S,M3,M3187.png,M3013.png,M3187.png,M3153.png,S,1,0.266122418,0.3,0.3,0.5,2017-04-03-10:08:09,1.694064801216255,1,M3187.png-M3013.png-M3187.png-M3153.png,0,1,0,0,0,0,0,30400
603,CFS,603,27,NA,Complete,congruent,aligned,S,F1,F1015.png,F1046.png,F1015.png,F1046.png,S,1,0.151220539,0.3,0.3,0.5,2017-04-03-10:08:12,0.5096188066215706,1,F1015.png-F1046.png-F1015.png-F1046.png,0,0,0,0,0,0,0,30400
603,CFS,603,28,NA,Complete,congruent,aligned,S,F5,F5033.png,F5078.png,F5033.png,F5078.png,S,1,0.011111786,0.3,0.3,0.5,2017-04-03-10:08:14,-0.9268190623029349,1,F5033.png-F5078.png-F5033.png-F5078.png,0,0,0,0,0,0,0,30400
603,CFS,603,29,NA,Complete,incongruent,misaligned,D,M4,M4197.png,M4134.png,M4136.png,M4134.png,S,0,0.320658573,0.3,0.3,0.5,2017-04-03-10:08:16,0.8954004386027137,1,M4197.png-M4134.png-M4136.png-M4134.png,0,1,1,0,0,1,0,30400
603,CFS,603,30,NA,Complete,incongruent,aligned,D,F4,F4020.png,F4018.png,F4064.png,F4018.png,S,0,0.295762287,0.3,0.3,0.5,2017-04-03-10:08:19,-0.1128598576220108,1,F4020.png-F4018.png-F4064.png-F4018.png,0,1,0,0,0,0,0,30400
603,CFS,603,31,NA,Complete,congruent,misaligned,D,F2,F2016.png,F2032.png,F2067.png,F2017.png,S,0,0.14100459,0.3,0.3,0.5,2017-04-03-10:08:21,0.15170964856281538,1,F2016.png-F2032.png-F2067.png-F2017.png,0,0,1,0,0,0,0,30400
603,CFS,603,32,NA,Complete,congruent,aligned,D,F3,F3062.png,F3079.png,F3112.png,F3047.png,D,1,0.101110452,0.3,0.3,0.5,2017-04-03-10:08:24,-0.7733472074381905,1,F3062.png-F3079.png-F3112.png-F3047.png,0,0,0,0,0,0,0,30400
603,CFS,603,33,NA,Complete,incongruent,aligned,S,M5,M5146.png,M5152.png,M5146.png,M5154.png,S,1,0.151013367,0.3,0.3,0.5,2017-04-03-10:08:26,0.35326857303760906,1,M5146.png-M5152.png-M5146.png-M5154.png,0,1,0,0,0,0,0,30400
603,CFS,603,34,NA,Complete,congruent,aligned,S,M3,M3153.png,M3183.png,M3153.png,M3183.png,S,1,0.150958451,0.3,0.3,0.5,2017-04-03-10:08:28,0.5069318001346119,1,M3153.png-M3183.png-M3153.png-M3183.png,0,0,0,0,0,0,0,30400
603,CFS,603,35,NA,Complete,congruent,misaligned,S,F2,F2032.png,F2067.png,F2032.png,F2067.png,S,1,0.130717474,0.3,0.3,0.5,2017-04-03-10:08:31,0.40254574606051796,1,F2032.png-F2067.png-F2032.png-F2067.png,0,0,1,0,0,0,0,30400
603,CFS,603,36,NA,Complete,incongruent,misaligned,D,M2,M2141.png,M2201.png,M2198.png,M2201.png,D,1,0.15646424,0.3,0.3,0.5,2017-04-03-10:08:33,0.06826278750327723,1,M2141.png-M2201.png-M2198.png-M2201.png,0,1,1,0,0,1,0,30400
603,CFS,603,37,NA,Complete,incongruent,aligned,D,M3,M3153.png,M3183.png,M3013.png,M3183.png,S,0,0.8109946,0.3,0.3,0.5,2017-04-03-10:08:36,2.2150072479399294,1,M3153.png-M3183.png-M3013.png-M3183.png,0,1,0,0,0,0,0,30400
603,CFS,603,38,NA,Complete,congruent,misaligned,D,M2,M2142.png,M2198.png,M2141.png,M2201.png,D,1,0.175439023,0.3,0.3,0.5,2017-04-03-10:08:39,0.18024380137410329,1,M2142.png-M2198.png-M2141.png-M2201.png,0,0,1,0,0,0,0,30400
603,CFS,603,39,NA,Complete,congruent,misaligned,D,M1,M1119.png,M1186.png,M1125.png,M1122.png,D,1,0.091381726,0.3,0.3,0.5,2017-04-03-10:08:41,-0.5813233242038974,1,M1119.png-M1186.png-M1125.png-M1122.png,0,0,1,0,0,0,0,30400
603,CFS,603,40,NA,Complete,incongruent,misaligned,S,M1,M1122.png,M1119.png,M1122.png,M1186.png,S,1,0.365436576,0.3,0.3,0.5,2017-04-03-10:08:43,2.890929365077078,1,M1122.png-M1119.png-M1122.png-M1186.png,0,1,1,0,0,1,0,30400
603,CFS,603,41,NA,Complete,congruent,misaligned,S,F2,F2017.png,F2016.png,F2017.png,F2016.png,S,1,0.108650094,0.3,0.3,0.5,2017-04-03-10:09:00,0.15034469580218834,1,F2017.png-F2016.png-F2017.png-F2016.png,0,0,1,0,0,0,0,30400
603,CFS,603,42,NA,Complete,congruent,misaligned,D,F2,F2017.png,F2016.png,F2032.png,F2067.png,D,1,0.485781738,0.3,0.3,0.5,2017-04-03-10:09:02,2.9919783900633243,1,F2017.png-F2016.png-F2032.png-F2067.png,0,0,1,0,0,0,0,30400
603,CFS,603,43,NA,Complete,congruent,aligned,S,M3,M3187.png,M3013.png,M3187.png,M3013.png,S,1,0.201245088,0.3,0.3,0.5,2017-04-03-10:09:05,1.0224858118647726,1,M3187.png-M3013.png-M3187.png-M3013.png,0,0,0,0,0,0,0,30400
603,CFS,603,44,NA,Complete,incongruent,aligned,S,M1,M1186.png,M1125.png,M1186.png,M1122.png,S,1,0.051078717,0.3,0.3,0.5,2017-04-03-10:09:07,-0.8107754410543245,1,M1186.png-M1125.png-M1186.png-M1122.png,0,1,0,0,0,0,0,30400
603,CFS,603,45,NA,Complete,congruent,aligned,D,M4,M4188.png,M4136.png,M4197.png,M4134.png,S,0,0.076903943,0.3,0.3,0.5,2017-04-03-10:09:09,-1.158453031269654,1,M4188.png-M4136.png-M4197.png-M4134.png,0,0,0,0,0,0,0,30400
603,CFS,603,46,NA,Complete,congruent,misaligned,D,M2,M2141.png,M2201.png,M2142.png,M2198.png,D,1,0.355685269,0.3,0.3,0.5,2017-04-03-10:09:12,1.81329197638793,1,M2141.png-M2201.png-M2142.png-M2198.png,0,0,1,0,0,0,0,30400
603,CFS,603,47,NA,Complete,incongruent,aligned,D,M5,M5154.png,M5178.png,M5152.png,M5178.png,S,0,0.250580716,0.3,0.3,0.5,2017-04-03-10:09:14,-0.31699436210622656,1,M5154.png-M5178.png-M5152.png-M5178.png,0,1,0,0,0,0,0,30400
603,CFS,603,48,NA,Complete,congruent,aligned,S,M5,M5178.png,M5146.png,M5178.png,M5146.png,S,1,0.105413686,0.3,0.3,0.5,2017-04-03-10:09:17,0.03999291318821691,1,M5178.png-M5146.png-M5178.png-M5146.png,0,0,0,0,0,0,0,30400
603,CFS,603,49,NA,Complete,congruent,aligned,S,F5,F5068.png,F5076.png,F5068.png,F5076.png,S,1,7.29466e-4,0.3,0.3,0.5,2017-04-03-10:09:19,-1.0332617883708222,1,F5068.png-F5076.png-F5068.png-F5076.png,0,0,0,0,0,0,0,30400
603,CFS,603,50,NA,Complete,congruent,aligned,D,M4,M4197.png,M4134.png,M4188.png,M4136.png,S,0,0.216103343,0.3,0.3,0.5,2017-04-03-10:09:21,-0.027398586235325293,1,M4197.png-M4134.png-M4188.png-M4136.png,0,0,0,0,0,0,0,30400
603,CFS,603,51,NA,Complete,congruent,misaligned,D,M1,M1186.png,M1125.png,M1122.png,M1119.png,D,1,0.221300619,0.3,0.3,0.5,2017-04-03-10:09:24,0.5957542339798476,1,M1186.png-M1125.png-M1122.png-M1119.png,0,0,1,0,0,0,0,30400
603,CFS,603,52,NA,Complete,congruent,aligned,D,M5,M5152.png,M5154.png,M5178.png,M5146.png,D,1,0.260496427,0.3,0.3,0.5,2017-04-03-10:09:26,0.9649428950272221,1,M5152.png-M5154.png-M5178.png-M5146.png,0,0,0,0,0,0,0,30400
603,CFS,603,53,NA,Complete,incongruent,aligned,D,M3,M3013.png,M3153.png,M3187.png,M3153.png,D,1,0.335917679,0.3,0.3,0.5,2017-04-03-10:09:29,1.6518425707529414,1,M3013.png-M3153.png-M3187.png-M3153.png,0,1,0,0,0,0,0,30400
603,CFS,603,54,NA,Complete,incongruent,aligned,D,F4,F4040.png,F4064.png,F4018.png,F4064.png,D,1,0.091471434,0.3,0.3,0.5,2017-04-03-10:09:31,-0.6277682388641362,1,F4040.png-F4064.png-F4018.png-F4064.png,0,1,0,0,0,0,0,30400
603,CFS,603,55,NA,Complete,congruent,misaligned,D,F4,F4040.png,F4064.png,F4020.png,F4018.png,D,1,0.070588859,0.3,0.3,0.5,2017-04-03-10:09:34,-0.7697086817977261,1,F4040.png-F4064.png-F4020.png-F4018.png,0,0,1,0,0,0,0,30400
603,CFS,603,56,NA,Complete,incongruent,misaligned,D,M4,M4134.png,M4188.png,M4197.png,M4188.png,D,1,0.185820573,0.3,0.3,0.5,2017-04-03-10:09:36,0.384759046610011,1,M4134.png-M4188.png-M4197.png-M4188.png,0,1,1,0,0,1,0,30400
603,CFS,603,57,NA,Complete,congruent,misaligned,S,M4,M4188.png,M4136.png,M4188.png,M4136.png,S,1,0.136292827,0.3,0.3,0.5,2017-04-03-10:09:38,0.4662646779029447,1,M4188.png-M4136.png-M4188.png-M4136.png,0,0,1,0,0,0,0,30400
603,CFS,603,58,NA,Complete,congruent,misaligned,D,M5,M5154.png,M5178.png,M5146.png,M5152.png,D,1,0.0607243,0.3,0.3,0.5,2017-04-03-10:09:41,-0.8590825269110729,1,M5154.png-M5178.png-M5146.png-M5152.png,0,0,1,0,0,0,0,30400
603,CFS,603,59,NA,Complete,incongruent,aligned,D,M3,M3183.png,M3187.png,M3153.png,M3187.png,D,1,0.056247039,0.3,0.3,0.5,2017-04-03-10:09:43,-0.9562572758064781,1,M3183.png-M3187.png-M3153.png-M3187.png,0,1,0,0,0,0,0,30400
603,CFS,603,60,NA,Complete,congruent,misaligned,D,F3,F3079.png,F3112.png,F3047.png,F3062.png,S,0,0.170766543,0.3,0.3,0.5,2017-04-03-10:09:45,0.6012913109252511,1,F3079.png-F3112.png-F3047.png-F3062.png,0,0,1,0,0,0,0,30400
603,CFS,603,61,NA,Complete,incongruent,misaligned,D,F5,F5033.png,F5078.png,F5076.png,F5078.png,D,1,0.040931007,0.3,0.3,0.5,2017-04-03-10:09:48,-1.177323166539643,1,F5033.png-F5078.png-F5076.png-F5078.png,0,1,1,0,0,1,0,30400
603,CFS,603,62,NA,Complete,incongruent,misaligned,D,F4,F4040.png,F4064.png,F4018.png,F4064.png,D,1,0.146119749,0.3,0.3,0.5,2017-04-03-10:09:50,-0.04326315491818532,1,F4040.png-F4064.png-F4018.png-F4064.png,0,1,1,0,0,1,0,30400
603,CFS,603,63,NA,Complete,congruent,aligned,S,F4,F4040.png,F4064.png,F4040.png,F4064.png,S,1,8.30187e-4,0.3,0.3,0.5,2017-04-03-10:09:52,-1.0322291658151426,1,F4040.png-F4064.png-F4040.png-F4064.png,0,0,0,0,0,0,0,30400
603,CFS,603,64,NA,Complete,congruent,misaligned,S,M2,M2141.png,M2201.png,M2141.png,M2201.png,S,1,5.76183e-4,0.3,0.3,0.5,2017-04-03-10:09:54,-1.0847975757191817,1,M2141.png-M2201.png-M2141.png-M2201.png,0,0,1,0,0,0,0,30400
603,CFS,603,65,NA,Complete,congruent,aligned,S,F5,F5078.png,F5068.png,F5078.png,F5068.png,S,1,0.240978608,0.3,0.3,0.5,2017-04-03-10:09:57,1.4298460343461565,1,F5078.png-F5068.png-F5078.png-F5068.png,0,0,0,0,0,0,0,30400
603,CFS,603,66,NA,Complete,incongruent,aligned,D,F3,F3079.png,F3112.png,F3062.png,F3112.png,D,1,0.036119164,0.3,0.3,0.5,2017-04-03-10:09:59,-1.1439620262910737,1,F3079.png-F3112.png-F3062.png-F3112.png,0,1,0,0,0,0,0,30400
603,CFS,603,67,NA,Complete,congruent,aligned,D,F5,F5068.png,F5076.png,F5033.png,F5078.png,D,1,0.30577842,0.3,0.3,0.5,2017-04-03-10:10:02,1.4587958846130884,1,F5068.png-F5076.png-F5033.png-F5078.png,0,0,0,0,0,0,0,30400
603,CFS,603,68,NA,Complete,incongruent,misaligned,D,F4,F4018.png,F4040.png,F4020.png,F4040.png,S,0,0.081464433,0.3,0.3,0.5,2017-04-03-10:10:04,-0.9991670628507029,1,F4018.png-F4040.png-F4020.png-F4040.png,0,1,1,0,0,1,0,30400
603,CFS,603,69,NA,Complete,congruent,misaligned,S,M5,M5152.png,M5154.png,M5152.png,M5154.png,S,1,0.241033502,0.3,0.3,0.5,2017-04-03-10:10:06,1.6633124579188043,1,M5152.png-M5154.png-M5152.png-M5154.png,0,0,1,0,0,0,0,30400
603,CFS,603,70,NA,Complete,incongruent,aligned,D,M1,M1186.png,M1125.png,M1119.png,M1125.png,D,1,0.066115233,0.3,0.3,0.5,2017-04-03-10:10:09,-0.8642303284757945,1,M1186.png-M1125.png-M1119.png-M1125.png,0,1,0,0,0,0,0,30400
603,CFS,603,71,NA,Complete,incongruent,misaligned,D,F1,F1002.png,F1015.png,F1059.png,F1015.png,D,1,0.201305542,0.3,0.3,0.5,2017-04-03-10:10:11,0.5517054687290048,1,F1002.png-F1015.png-F1059.png-F1015.png,0,1,1,0,0,1,0,30400
603,CFS,603,72,NA,Complete,incongruent,misaligned,S,F1,F1046.png,F1059.png,F1046.png,F1002.png,S,1,0.256163425,0.3,0.3,0.5,2017-04-03-10:10:14,1.6972728487768334,1,F1046.png-F1059.png-F1046.png-F1002.png,0,1,1,0,0,1,0,30400
603,CFS,603,73,NA,Complete,incongruent,misaligned,S,F5,F5033.png,F5078.png,F5033.png,F5068.png,S,1,0.205748139,0.3,0.3,0.5,2017-04-03-10:10:16,1.1465562811266472,1,F5033.png-F5078.png-F5033.png-F5068.png,0,1,1,0,0,1,0,30400
603,CFS,603,74,NA,Complete,congruent,aligned,S,M4,M4188.png,M4136.png,M4188.png,M4136.png,S,1,0.180527837,0.3,0.3,0.5,2017-04-03-10:10:18,0.8100862062782889,1,M4188.png-M4136.png-M4188.png-M4136.png,0,0,0,0,0,0,0,30400
603,CFS,603,75,NA,Complete,congruent,misaligned,D,F4,F4064.png,F4020.png,F4018.png,F4040.png,S,0,0.016408778,0.3,0.3,0.5,2017-04-03-10:10:21,-1.7304246415611413,1,F4064.png-F4020.png-F4018.png-F4040.png,0,0,1,0,0,0,0,30400
603,CFS,603,76,NA,Complete,congruent,misaligned,D,F4,F4020.png,F4018.png,F4040.png,F4064.png,D,1,0.13526601,0.3,0.3,0.5,2017-04-03-10:10:23,-0.1837275268523761,1,F4020.png-F4018.png-F4040.png-F4064.png,0,0,1,0,0,0,0,30400
603,CFS,603,77,NA,Complete,congruent,aligned,S,M1,M1122.png,M1119.png,M1122.png,M1119.png,S,1,0.1709914,0.3,0.3,0.5,2017-04-03-10:10:25,0.7123157319281759,1,M1122.png-M1119.png-M1122.png-M1119.png,0,0,0,0,0,0,0,30400
603,CFS,603,78,NA,Complete,incongruent,aligned,D,F3,F3112.png,F3047.png,F3079.png,F3047.png,D,1,0.351085966,0.3,0.3,0.5,2017-04-03-10:10:28,1.793296128399426,1,F3112.png-F3047.png-F3079.png-F3047.png,0,1,0,0,0,0,0,30400
603,CFS,603,79,NA,Complete,incongruent,aligned,D,F1,F1015.png,F1046.png,F1002.png,F1046.png,S,0,0.295934047,0.3,0.3,0.5,2017-04-03-10:10:31,-0.11208383010206906,1,F1015.png-F1046.png-F1002.png-F1046.png,0,1,0,0,0,0,0,30400
603,CFS,603,80,NA,Complete,congruent,aligned,D,M1,M1125.png,M1122.png,M1119.png,M1186.png,D,1,0.076061225,0.3,0.3,0.5,2017-04-03-10:10:33,-1.0465382668680394,1,M1125.png-M1122.png-M1119.png-M1186.png,0,0,0,0,0,0,0,30400
603,CFS,603,81,NA,Complete,congruent,misaligned,D,F1,F1059.png,F1002.png,F1015.png,F1046.png,D,1,0.005388538,0.3,0.3,0.5,2017-04-03-10:10:48,-1.3604298068266805,1,F1059.png-F1002.png-F1015.png-F1046.png,0,0,1,0,0,0,0,30400
603,CFS,603,82,NA,Complete,incongruent,aligned,S,F1,F1015.png,F1046.png,F1015.png,F1059.png,S,1,0.16128902,0.3,0.3,0.5,2017-04-03-10:10:51,0.47295991498492973,1,F1015.png-F1046.png-F1015.png-F1059.png,0,1,0,0,0,0,0,30400
603,CFS,603,83,NA,Complete,congruent,aligned,D,F1,F1046.png,F1059.png,F1002.png,F1015.png,D,1,0.275837116,0.3,0.3,0.5,2017-04-03-10:10:53,1.132251015165773,1,F1046.png-F1059.png-F1002.png-F1015.png,0,0,0,0,0,0,0,30400
603,CFS,603,84,NA,Complete,congruent,aligned,S,F3,F3062.png,F3079.png,F3062.png,F3079.png,S,1,0.095568972,0.3,0.3,0.5,2017-04-03-10:10:56,-0.060938111430432366,1,F3062.png-F3079.png-F3062.png-F3079.png,0,0,0,0,0,0,0,30400
603,CFS,603,85,NA,Complete,incongruent,aligned,D,M4,M4136.png,M4197.png,M4188.png,M4197.png,D,1,0.095729783,0.3,0.3,0.5,2017-04-03-10:10:58,-0.5880565287843923,1,M4136.png-M4197.png-M4188.png-M4197.png,0,1,0,0,0,0,0,30400
603,CFS,603,86,NA,Complete,incongruent,misaligned,S,F4,F4064.png,F4020.png,F4064.png,F4018.png,S,1,0.140882784,0.3,0.3,0.5,2017-04-03-10:11:00,0.4379928968980855,1,F4064.png-F4020.png-F4064.png-F4018.png,0,1,1,0,0,1,0,30400
603,CFS,603,87,NA,Complete,congruent,misaligned,S,F2,F2067.png,F2017.png,F2067.png,F2017.png,S,1,0.056118603,0.3,0.3,0.5,2017-04-03-10:11:02,-0.4500209661765328,1,F2067.png-F2017.png-F2067.png-F2017.png,0,0,1,0,0,0,0,30400
603,CFS,603,88,NA,Complete,incongruent,misaligned,D,F5,F5068.png,F5076.png,F5078.png,F5076.png,D,1,0.250670189,0.3,0.3,0.5,2017-04-03-10:11:05,1.0839152003608286,1,F5068.png-F5076.png-F5078.png-F5076.png,0,1,1,0,0,1,0,30400
603,CFS,603,89,NA,Complete,incongruent,misaligned,S,M1,M1186.png,M1125.png,M1186.png,M1122.png,S,1,0.096443532,0.3,0.3,0.5,2017-04-03-10:11:07,-0.04744384802847643,1,M1186.png-M1125.png-M1186.png-M1122.png,0,1,1,0,0,1,0,30400
603,CFS,603,90,NA,Complete,incongruent,aligned,D,F4,F4064.png,F4020.png,F4040.png,F4020.png,D,1,0.265572966,0.3,0.3,0.5,2017-04-03-10:11:10,0.995835078577265,1,F4064.png-F4020.png-F4040.png-F4020.png,0,1,0,0,0,0,0,30400
603,CFS,603,91,NA,Complete,congruent,aligned,D,M5,M5146.png,M5152.png,M5154.png,M5178.png,D,1,0.180775554,0.3,0.3,0.5,2017-04-03-10:11:12,0.0954937198673492,1,M5146.png-M5152.png-M5154.png-M5178.png,0,0,0,0,0,0,0,30400
603,CFS,603,92,NA,Complete,incongruent,misaligned,S,M4,M4136.png,M4197.png,M4136.png,M4134.png,S,1,0.021264351,0.3,0.3,0.5,2017-04-03-10:11:14,-0.8686713725350731,1,M4136.png-M4197.png-M4136.png-M4134.png,0,1,1,0,0,1,0,30400
603,CFS,603,93,NA,Complete,congruent,misaligned,D,M3,M3013.png,M3153.png,M3183.png,M3187.png,D,1,0.170417805,0.3,0.3,0.5,2017-04-03-10:11:17,0.13475108752725531,1,M3013.png-M3153.png-M3183.png-M3187.png,0,0,1,0,0,0,0,30400
603,CFS,603,94,NA,Complete,incongruent,aligned,D,F5,F5068.png,F5076.png,F5078.png,F5076.png,D,1,0.12557073,0.3,0.3,0.5,2017-04-03-10:11:19,-0.3097714385372082,1,F5068.png-F5076.png-F5078.png-F5076.png,0,1,0,0,0,0,0,30400
603,CFS,603,95,NA,Complete,incongruent,misaligned,D,M1,M1125.png,M1122.png,M1186.png,M1122.png,S,0,0.245417763,0.3,0.3,0.5,2017-04-03-10:11:22,0.29944606694030074,1,M1125.png-M1122.png-M1186.png-M1122.png,0,1,1,0,0,1,0,30400
603,CFS,603,96,NA,Complete,congruent,misaligned,S,F1,F1059.png,F1002.png,F1059.png,F1002.png,S,1,0.080598491,0.3,0.3,0.5,2017-04-03-10:11:24,-0.17024813116819568,1,F1059.png-F1002.png-F1059.png-F1002.png,0,0,1,0,0,0,0,30400
603,CFS,603,97,NA,Complete,incongruent,aligned,S,M3,M3153.png,M3183.png,M3153.png,M3187.png,S,1,0.021409744,0.3,0.3,0.5,2017-04-03-10:11:26,-1.1563611855874292,1,M3153.png-M3183.png-M3153.png-M3187.png,0,1,0,0,0,0,0,30400
603,CFS,603,98,NA,Complete,incongruent,misaligned,D,M3,M3013.png,M3153.png,M3187.png,M3153.png,D,1,0.115594051,0.3,0.3,0.5,2017-04-03-10:11:29,-0.37236656247327427,1,M3013.png-M3153.png-M3187.png-M3153.png,0,1,1,0,0,1,0,30400
603,CFS,603,99,NA,Complete,congruent,aligned,D,F5,F5076.png,F5033.png,F5078.png,F5068.png,D,1,0.135772757,0.3,0.3,0.5,2017-04-03-10:11:31,-0.3953143114438135,1,F5076.png-F5033.png-F5078.png-F5068.png,0,0,0,0,0,0,0,30400
603,CFS,603,100,NA,Complete,congruent,misaligned,S,F5,F5068.png,F5076.png,F5068.png,F5076.png,S,1,0.071301218,0.3,0.3,0.5,2017-04-03-10:11:33,-0.27650370002768015,1,F5068.png-F5076.png-F5068.png-F5076.png,0,0,1,0,0,0,0,30400
603,CFS,603,101,NA,Complete,incongruent,misaligned,S,M3,M3183.png,M3187.png,M3183.png,M3013.png,S,1,0.061444678,0.3,0.3,0.5,2017-04-03-10:11:35,-0.4297574333678511,1,M3183.png-M3187.png-M3183.png-M3013.png,0,1,1,0,0,1,0,30400
603,CFS,603,102,NA,Complete,congruent,aligned,S,F2,F2067.png,F2017.png,F2067.png,F2017.png,S,1,5.81999e-4,0.3,0.3,0.5,2017-04-03-10:11:38,-1.0347736652427595,1,F2067.png-F2017.png-F2067.png-F2017.png,0,0,0,0,0,0,0,30400
603,CFS,603,103,NA,Complete,incongruent,aligned,D,M2,M2141.png,M2201.png,M2198.png,M2201.png,D,1,0.070794727,0.3,0.3,0.5,2017-04-03-10:11:40,-0.8205911835752939,1,M2141.png-M2201.png-M2198.png-M2201.png,0,1,0,0,0,0,0,30400
603,CFS,603,104,NA,Complete,congruent,aligned,D,F1,F1002.png,F1015.png,F1046.png,F1059.png,D,1,0.060923432,0.3,0.3,0.5,2017-04-03-10:11:42,-1.2116335692939284,1,F1002.png-F1015.png-F1046.png-F1059.png,0,0,0,0,0,0,0,30400
603,CFS,603,105,NA,Complete,congruent,misaligned,D,F5,F5068.png,F5076.png,F5033.png,F5078.png,D,1,0.145477511,0.3,0.3,0.5,2017-04-03-10:11:45,-0.09121035413854389,1,F5068.png-F5076.png-F5033.png-F5078.png,0,0,1,0,0,0,0,30400
603,CFS,603,106,NA,Complete,incongruent,aligned,D,M4,M4188.png,M4136.png,M4134.png,M4136.png,D,1,0.080731588,0.3,0.3,0.5,2017-04-03-10:11:47,-0.7279238744527408,1,M4188.png-M4136.png-M4134.png-M4136.png,0,1,0,0,0,0,0,30400
603,CFS,603,107,NA,Complete,incongruent,aligned,D,F1,F1002.png,F1015.png,F1059.png,F1015.png,D,1,0.121158691,0.3,0.3,0.5,2017-04-03-10:11:49,-0.3509164019088161,1,F1002.png-F1015.png-F1059.png-F1015.png,0,1,0,0,0,0,0,30400
603,CFS,603,108,NA,Complete,congruent,aligned,S,F3,F3079.png,F3112.png,F3079.png,F3112.png,S,1,0.190394791,0.3,0.3,0.5,2017-04-03-10:11:52,0.9112452421918849,1,F3079.png-F3112.png-F3079.png-F3112.png,0,0,0,0,0,0,0,30400
603,CFS,603,109,NA,Complete,incongruent,misaligned,S,M3,M3013.png,M3153.png,M3013.png,M3183.png,D,0,0.195512688,0.3,0.3,0.5,2017-04-03-10:11:54,0.7071067811865475,1,M3013.png-M3153.png-M3013.png-M3183.png,0,1,1,0,0,1,0,30400
603,CFS,603,110,NA,Complete,incongruent,aligned,S,F5,F5068.png,F5076.png,F5068.png,F5033.png,S,1,0.090654634,0.3,0.3,0.5,2017-04-03-10:11:56,-0.349793096231491,1,F5068.png-F5076.png-F5068.png-F5033.png,0,1,0,0,0,0,0,30400
603,CFS,603,111,NA,Complete,incongruent,aligned,D,M1,M1119.png,M1186.png,M1122.png,M1186.png,D,1,0.06085637,0.3,0.3,0.5,2017-04-03-10:11:59,-0.9132724438132394,1,M1119.png-M1186.png-M1122.png-M1186.png,0,1,0,0,0,0,0,30400
603,CFS,603,112,NA,Complete,incongruent,misaligned,S,F4,F4018.png,F4040.png,F4018.png,F4064.png,S,1,0.141444938,0.3,0.3,0.5,2017-04-03-10:12:01,0.44413364399948674,1,F4018.png-F4040.png-F4018.png-F4064.png,0,1,1,0,0,1,0,30400
603,CFS,603,113,NA,Complete,congruent,misaligned,D,M5,M5146.png,M5152.png,M5154.png,M5178.png,D,1,0.085551471,0.3,0.3,0.5,2017-04-03-10:12:03,-0.6341459904114102,1,M5146.png-M5152.png-M5154.png-M5178.png,0,0,1,0,0,0,0,30400
603,CFS,603,114,NA,Complete,incongruent,aligned,S,M1,M1122.png,M1119.png,M1122.png,M1186.png,S,1,0.336077956,0.3,0.3,0.5,2017-04-03-10:12:06,2.5089105555315077,1,M1122.png-M1119.png-M1122.png-M1186.png,0,1,0,0,0,0,0,30400
603,CFS,603,115,NA,Complete,congruent,aligned,S,M4,M4197.png,M4134.png,M4197.png,M4134.png,S,1,0.090502398,0.3,0.3,0.5,2017-04-03-10:12:08,-0.11288218061580521,1,M4197.png-M4134.png-M4197.png-M4134.png,0,0,0,0,0,0,0,30400
603,CFS,603,116,NA,Complete,congruent,misaligned,S,F1,F1046.png,F1059.png,F1046.png,F1059.png,S,1,0.060693506,0.3,0.3,0.5,2017-04-03-10:12:11,-0.39773585840977566,1,F1046.png-F1059.png-F1046.png-F1059.png,0,0,1,0,0,0,0,30400
603,CFS,603,117,NA,Complete,incongruent,aligned,S,M1,M1125.png,M1122.png,M1125.png,M1119.png,S,1,0.121245362,0.3,0.3,0.5,2017-04-03-10:12:13,0.006529298604679456,1,M1125.png-M1122.png-M1125.png-M1119.png,0,1,0,0,0,0,0,30400
603,CFS,603,118,NA,Complete,congruent,aligned,D,F5,F5033.png,F5078.png,F5068.png,F5076.png,D,1,0.140396245,0.3,0.3,0.5,2017-04-03-10:12:15,-0.34488977798490894,1,F5033.png-F5078.png-F5068.png-F5076.png,0,0,0,0,0,0,0,30400
603,CFS,603,119,NA,Complete,congruent,misaligned,D,F2,F2067.png,F2017.png,F2016.png,F2032.png,S,0,0.145588731,0.3,0.3,0.5,2017-04-03-10:12:18,0.2209573128973365,1,F2067.png-F2017.png-F2016.png-F2032.png,0,0,1,0,0,0,0,30400
603,CFS,603,120,NA,Complete,incongruent,misaligned,D,M2,M2198.png,M2141.png,M2142.png,M2141.png,D,1,0.220694327,0.3,0.3,0.5,2017-04-03-10:12:20,0.7607396802269039,1,M2198.png-M2141.png-M2142.png-M2141.png,0,1,1,0,0,1,0,30400
603,CFS,603,121,NA,Complete,congruent,misaligned,S,M2,M2201.png,M2142.png,M2201.png,M2142.png,S,1,0.035457465,0.3,0.3,0.5,2017-04-03-10:12:34,-0.6861505249702041,1,M2201.png-M2142.png-M2201.png-M2142.png,0,0,1,0,0,0,0,30400
603,CFS,603,122,NA,Complete,incongruent,misaligned,S,F3,F3112.png,F3047.png,F3112.png,F3062.png,S,1,0.090954721,0.3,0.3,0.5,2017-04-03-10:12:36,-0.1074014401444982,1,F3112.png-F3047.png-F3112.png-F3062.png,0,1,1,0,0,1,0,30400
603,CFS,603,123,NA,Complete,congruent,misaligned,S,M5,M5178.png,M5146.png,M5178.png,M5146.png,S,1,0.111116662,0.3,0.3,0.5,2017-04-03-10:12:38,0.17853431505619985,1,M5178.png-M5146.png-M5178.png-M5146.png,0,0,1,0,0,0,0,30400
603,CFS,603,124,NA,Complete,incongruent,aligned,S,M3,M3013.png,M3153.png,M3013.png,M3183.png,S,1,0.005675945,0.3,0.3,0.5,2017-04-03-10:12:41,-1.3396292967468282,1,M3013.png-M3153.png-M3013.png-M3183.png,0,1,0,0,0,0,0,30400
603,CFS,603,125,NA,Complete,incongruent,misaligned,S,M2,M2142.png,M2198.png,M2142.png,M2141.png,S,1,0.055454488,0.3,0.3,0.5,2017-04-03-10:12:43,-0.4951918906150532,1,M2142.png-M2198.png-M2142.png-M2141.png,0,1,1,0,0,1,0,30400
603,CFS,603,126,NA,Complete,incongruent,misaligned,S,M5,M5146.png,M5152.png,M5146.png,M5154.png,S,1,6.18652e-4,0.3,0.3,0.5,2017-04-03-10:12:45,-1.094196791353859,1,M5146.png-M5152.png-M5146.png-M5154.png,0,1,1,0,0,1,0,30400
603,CFS,603,127,NA,Complete,incongruent,aligned,D,F5,F5033.png,F5078.png,F5076.png,F5078.png,D,1,0.066166556,0.3,0.3,0.5,2017-04-03-10:12:47,-0.8637517100966003,1,F5033.png-F5078.png-F5076.png-F5078.png,0,1,0,0,0,0,0,30400
603,CFS,603,128,NA,Complete,incongruent,misaligned,D,M1,M1119.png,M1186.png,M1122.png,M1186.png,D,1,0.141396011,0.3,0.3,0.5,2017-04-03-10:12:50,-0.09419068070965003,1,M1119.png-M1186.png-M1122.png-M1186.png,0,1,1,0,0,1,0,30400
603,CFS,603,129,NA,Complete,incongruent,aligned,D,M2,M2142.png,M2198.png,M2201.png,M2198.png,S,0,0.230509959,0.3,0.3,0.5,2017-04-03-10:12:52,-0.40767589318486264,1,M2142.png-M2198.png-M2201.png-M2198.png,0,1,0,0,0,0,0,30400
603,CFS,603,130,NA,Complete,congruent,misaligned,D,F5,F5078.png,F5068.png,F5076.png,F5033.png,D,1,0.07628157,0.3,0.3,0.5,2017-04-03-10:12:55,-0.7181321773448615,1,F5078.png-F5068.png-F5076.png-F5033.png,0,0,1,0,0,0,0,30400
603,CFS,603,131,NA,Complete,incongruent,aligned,S,M1,M1119.png,M1186.png,M1119.png,M1125.png,S,1,0.031178865,0.3,0.3,0.5,2017-04-03-10:12:57,-1.0425699547882037,1,M1119.png-M1186.png-M1119.png-M1125.png,0,1,0,0,0,0,0,30400
603,CFS,603,132,NA,Complete,congruent,aligned,D,M4,M4136.png,M4197.png,M4134.png,M4188.png,D,1,0.195700529,0.3,0.3,0.5,2017-04-03-10:12:59,0.2582679935890097,1,M4136.png-M4197.png-M4134.png-M4188.png,0,0,0,0,0,0,0,30400
603,CFS,603,133,NA,Complete,incongruent,misaligned,D,F1,F1046.png,F1059.png,F1015.png,F1059.png,D,1,0.34082325,0.3,0.3,0.5,2017-04-03-10:13:02,2.0558726500028257,1,F1046.png-F1059.png-F1015.png-F1059.png,0,1,1,0,0,1,0,30400
603,CFS,603,134,NA,Complete,congruent,misaligned,D,M4,M4136.png,M4197.png,M4134.png,M4188.png,D,1,0.111016753,0.3,0.3,0.5,2017-04-03-10:13:04,-0.4034281074086627,1,M4136.png-M4197.png-M4134.png-M4188.png,0,0,1,0,0,0,0,30400
603,CFS,603,135,NA,Complete,incongruent,misaligned,D,F3,F3047.png,F3062.png,F3112.png,F3062.png,D,1,0.285542233,0.3,0.3,0.5,2017-04-03-10:13:07,1.4598773981395983,1,F3047.png-F3062.png-F3112.png-F3062.png,0,1,1,0,0,1,0,30400
603,CFS,603,136,NA,Complete,congruent,aligned,D,M3,M3013.png,M3153.png,M3183.png,M3187.png,D,1,0.196005043,0.3,0.3,0.5,2017-04-03-10:13:09,0.2615890742064361,1,M3013.png-M3153.png-M3183.png-M3187.png,0,0,0,0,0,0,0,30400
603,CFS,603,137,NA,Complete,incongruent,misaligned,D,M5,M5154.png,M5178.png,M5152.png,M5178.png,S,0,0.171164529,0.3,0.3,0.5,2017-04-03-10:13:12,-0.2886860838482423,1,M5154.png-M5178.png-M5152.png-M5178.png,0,1,1,0,0,1,0,30400
603,CFS,603,138,NA,Complete,incongruent,misaligned,D,F3,F3112.png,F3047.png,F3079.png,F3047.png,D,1,0.13634107,0.3,0.3,0.5,2017-04-03-10:13:14,-0.14868896959693192,1,F3112.png-F3047.png-F3079.png-F3047.png,0,1,1,0,0,1,0,30400
603,CFS,603,139,NA,Complete,incongruent,misaligned,D,M4,M4136.png,M4197.png,M4188.png,M4197.png,D,1,0.145856977,0.3,0.3,0.5,2017-04-03-10:13:16,-0.04609615027213477,1,M4136.png-M4197.png-M4188.png-M4197.png,0,1,1,0,0,1,0,30400
603,CFS,603,140,NA,Complete,incongruent,aligned,D,F3,F3062.png,F3079.png,F3047.png,F3079.png,S,0,0.186007387,0.3,0.3,0.5,2017-04-03-10:13:19,-0.6087426175688626,1,F3062.png-F3079.png-F3047.png-F3079.png,0,1,0,0,0,0,0,30400
603,CFS,603,141,NA,Complete,incongruent,aligned,D,M2,M2201.png,M2142.png,M2141.png,M2142.png,D,1,0.125505486,0.3,0.3,0.5,2017-04-03-10:13:21,-0.31037987875956724,1,M2201.png-M2142.png-M2141.png-M2142.png,0,1,0,0,0,0,0,30400
603,CFS,603,142,NA,Complete,incongruent,misaligned,D,F3,F3062.png,F3079.png,F3047.png,F3079.png,S,0,0.171252504,0.3,0.3,0.5,2017-04-03-10:13:23,-0.2879892667107474,1,F3062.png-F3079.png-F3047.png-F3079.png,0,1,1,0,0,1,0,30400
603,CFS,603,143,NA,Complete,incongruent,aligned,D,M3,M3187.png,M3013.png,M3183.png,M3013.png,D,1,0.485426607,0.3,0.3,0.5,2017-04-03-10:13:26,3.0461048078474864,0,M3187.png-M3013.png-M3183.png-M3013.png,0,1,0,0,0,0,0,30400
603,CFS,603,144,NA,Complete,incongruent,aligned,S,M4,M4197.png,M4134.png,M4197.png,M4188.png,S,1,0.090956774,0.3,0.3,0.5,2017-04-03-10:13:28,-0.34627375375700653,1,M4197.png-M4134.png-M4197.png-M4188.png,0,1,0,0,0,0,0,30400
603,CFS,603,145,NA,Complete,congruent,aligned,S,F4,F4018.png,F4040.png,F4018.png,F4040.png,S,1,0.156109194,0.3,0.3,0.5,2017-04-03-10:13:31,0.5597387956996773,1,F4018.png-F4040.png-F4018.png-F4040.png,0,0,0,0,0,0,0,30400
603,CFS,603,146,NA,Complete,congruent,aligned,D,M2,M2141.png,M2201.png,M2142.png,M2198.png,D,1,0.045694627,0.3,0.3,0.5,2017-04-03-10:13:33,-1.3777214638146087,1,M2141.png-M2201.png-M2142.png-M2198.png,0,0,0,0,0,0,0,30400
603,CFS,603,147,NA,Complete,incongruent,aligned,D,F2,F2017.png,F2016.png,F2067.png,F2016.png,D,1,0.185862315,0.3,0.3,0.5,2017-04-03-10:13:35,0.2524844835979298,1,F2017.png-F2016.png-F2067.png-F2016.png,0,1,0,0,0,0,0,30400
603,CFS,603,148,NA,Complete,congruent,misaligned,S,F4,F4020.png,F4018.png,F4020.png,F4018.png,S,1,0.006371881,0.3,0.3,0.5,2017-04-03-10:13:38,-1.01856039112454,1,F4020.png-F4018.png-F4020.png-F4018.png,0,0,1,0,0,0,0,30400
603,CFS,603,149,NA,Complete,incongruent,aligned,S,F2,F2067.png,F2017.png,F2067.png,F2016.png,S,1,0.135800364,0.3,0.3,0.5,2017-04-03-10:13:40,0.17606672084207295,1,F2067.png-F2017.png-F2067.png-F2016.png,0,1,0,0,0,0,0,30400
603,CFS,603,150,NA,Complete,incongruent,misaligned,D,F5,F5076.png,F5033.png,F5068.png,F5033.png,D,1,0.025348951,0.3,0.3,0.5,2017-04-03-10:13:42,-1.345316302235155,1,F5076.png-F5033.png-F5068.png-F5033.png,0,1,1,0,0,1,0,30400
603,CFS,603,151,NA,Complete,congruent,misaligned,S,M4,M4136.png,M4197.png,M4136.png,M4197.png,S,1,0.031125147,0.3,0.3,0.5,2017-04-03-10:13:45,-0.7356632061155447,1,M4136.png-M4197.png-M4136.png-M4197.png,0,0,1,0,0,0,0,30400
603,CFS,603,152,NA,Complete,congruent,aligned,D,F4,F4040.png,F4064.png,F4020.png,F4018.png,S,0,0.425920344,0.3,0.3,0.5,2017-04-03-10:13:47,1.6774539607212147,1,F4040.png-F4064.png-F4020.png-F4018.png,0,0,0,0,0,0,0,30400
603,CFS,603,153,NA,Complete,congruent,aligned,S,M4,M4136.png,M4197.png,M4136.png,M4197.png,S,1,0.145550068,0.3,0.3,0.5,2017-04-03-10:13:50,0.4514834003415776,1,M4136.png-M4197.png-M4136.png-M4197.png,0,0,0,0,0,0,0,30400
603,CFS,603,154,NA,Complete,incongruent,aligned,S,M2,M2198.png,M2141.png,M2198.png,M2201.png,S,1,6.56717e-4,0.3,0.3,0.5,2017-04-03-10:13:52,-1.3980935262084075,1,M2198.png-M2141.png-M2198.png-M2201.png,0,1,0,0,0,0,0,30400
603,CFS,603,155,NA,Complete,congruent,misaligned,D,M4,M4197.png,M4134.png,M4188.png,M4136.png,D,1,0.06558661,0.3,0.3,0.5,2017-04-03-10:13:54,-0.8150295346959037,1,M4197.png-M4134.png-M4188.png-M4136.png,0,0,1,0,0,0,0,30400
603,CFS,603,156,NA,Complete,congruent,aligned,D,F4,F4064.png,F4020.png,F4018.png,F4040.png,D,1,0.475820692,0.3,0.3,0.5,2017-04-03-10:13:57,3.3133053445472616,0,F4064.png-F4020.png-F4018.png-F4040.png,0,0,0,0,0,0,0,30400
603,CFS,603,157,NA,Complete,congruent,aligned,D,F1,F1059.png,F1002.png,F1015.png,F1046.png,D,1,0.135418288,0.3,0.3,0.5,2017-04-03-10:13:59,-0.3991802096467815,1,F1059.png-F1002.png-F1015.png-F1046.png,0,0,0,0,0,0,0,30400
603,CFS,603,158,NA,Complete,incongruent,misaligned,S,F1,F1015.png,F1046.png,F1015.png,F1059.png,S,1,0.095991528,0.3,0.3,0.5,2017-04-03-10:14:01,-0.05238136026324091,1,F1015.png-F1046.png-F1015.png-F1059.png,0,1,1,0,0,1,0,30400
603,CFS,603,159,NA,Complete,incongruent,misaligned,S,F1,F1002.png,F1015.png,F1002.png,F1046.png,S,1,5.69339e-4,0.3,0.3,0.5,2017-04-03-10:14:04,-1.094735466986891,1,F1002.png-F1015.png-F1002.png-F1046.png,0,1,1,0,0,1,0,30400
603,CFS,603,160,NA,Complete,congruent,misaligned,S,M1,M1125.png,M1122.png,M1125.png,M1122.png,S,1,5.79262e-4,0.3,0.3,0.5,2017-04-03-10:14:06,-1.0847623868098617,1,M1125.png-M1122.png-M1125.png-M1122.png,0,0,1,0,0,0,0,30400
603,CFS,603,161,NA,Complete,congruent,aligned,S,M4,M4134.png,M4188.png,M4134.png,M4188.png,S,1,0.130830384,0.3,0.3,0.5,2017-04-03-10:14:24,0.30057268945828136,1,M4134.png-M4188.png-M4134.png-M4188.png,0,0,0,0,0,0,0,30400
603,CFS,603,162,NA,Complete,incongruent,misaligned,S,F4,F4020.png,F4018.png,F4020.png,F4040.png,S,1,0.041396524,0.3,0.3,0.5,2017-04-03-10:14:26,-0.6487555078526879,1,F4020.png-F4018.png-F4020.png-F4040.png,0,1,1,0,0,1,0,30400
603,CFS,603,163,NA,Complete,incongruent,aligned,D,F4,F4018.png,F4040.png,F4020.png,F4040.png,S,0,0.175403781,0.3,0.3,0.5,2017-04-03-10:14:29,-0.656650687355897,1,F4018.png-F4040.png-F4020.png-F4040.png,0,1,0,0,0,0,0,30400
603,CFS,603,164,NA,Complete,incongruent,misaligned,D,M2,M2142.png,M2198.png,M2201.png,M2198.png,D,1,0.136316435,0.3,0.3,0.5,2017-04-03-10:14:31,-0.1489545642590136,1,M2142.png-M2198.png-M2201.png-M2198.png,0,1,1,0,0,1,0,30400
603,CFS,603,165,NA,Complete,congruent,misaligned,S,M2,M2142.png,M2198.png,M2142.png,M2198.png,S,1,0.040822394,0.3,0.3,0.5,2017-04-03-10:14:33,-0.6248364619341132,1,M2142.png-M2198.png-M2142.png-M2198.png,0,0,1,0,0,0,0,30400
603,CFS,603,166,NA,Complete,incongruent,misaligned,S,M4,M4188.png,M4136.png,M4188.png,M4197.png,S,1,0.155942652,0.3,0.3,0.5,2017-04-03-10:14:36,0.602500915641148,1,M4188.png-M4136.png-M4188.png-M4197.png,0,1,1,0,0,1,0,30400
603,CFS,603,167,NA,Complete,congruent,misaligned,D,M4,M4188.png,M4136.png,M4197.png,M4134.png,D,1,0.120521712,0.3,0.3,0.5,2017-04-03-10:14:38,-0.31731227258272543,1,M4188.png-M4136.png-M4197.png-M4134.png,0,0,1,0,0,0,0,30400
603,CFS,603,168,NA,Complete,congruent,misaligned,D,M2,M2198.png,M2141.png,M2201.png,M2142.png,D,1,0.130671968,0.3,0.3,0.5,2017-04-03-10:14:40,-0.2253499854085274,1,M2198.png-M2141.png-M2201.png-M2142.png,0,0,1,0,0,0,0,30400
603,CFS,603,169,NA,Complete,congruent,misaligned,S,F3,F3079.png,F3112.png,F3079.png,F3112.png,S,1,0.075511388,0.3,0.3,0.5,2017-04-03-10:14:43,-0.22838700942978807,1,F3079.png-F3112.png-F3079.png-F3112.png,0,0,1,0,0,0,0,30400
603,CFS,603,170,NA,Complete,incongruent,aligned,S,F1,F1046.png,F1059.png,F1046.png,F1002.png,S,1,6.75748e-4,0.3,0.3,0.5,2017-04-03-10:14:45,-1.3978718521280742,1,F1046.png-F1059.png-F1046.png-F1002.png,0,1,0,0,0,0,0,30400
603,CFS,603,171,NA,Complete,congruent,misaligned,D,F5,F5033.png,F5078.png,F5068.png,F5076.png,D,1,0.066137815,0.3,0.3,0.5,2017-04-03-10:14:47,-0.8100355648391973,1,F5033.png-F5078.png-F5068.png-F5076.png,0,0,1,0,0,0,0,30400
603,CFS,603,172,NA,Complete,incongruent,misaligned,D,M1,M1186.png,M1125.png,M1119.png,M1125.png,D,1,0.096360709,0.3,0.3,0.5,2017-04-03-10:14:49,-0.5797249131610264,1,M1186.png-M1125.png-M1119.png-M1125.png,0,1,1,0,0,1,0,30400
603,CFS,603,173,NA,Complete,congruent,misaligned,S,F5,F5076.png,F5033.png,F5076.png,F5033.png,S,1,0.075553472,0.3,0.3,0.5,2017-04-03-10:14:52,-0.22790604481146587,1,F5076.png-F5033.png-F5076.png-F5033.png,0,0,1,0,0,0,0,30400
603,CFS,603,174,NA,Complete,congruent,aligned,S,M2,M2198.png,M2141.png,M2198.png,M2141.png,D,0,0.121365457,0.3,0.3,0.5,2017-04-03-10:14:54,-0.6973399475708956,1,M2198.png-M2141.png-M2198.png-M2141.png,0,0,0,0,0,0,0,30400
603,CFS,603,175,NA,Complete,congruent,aligned,D,M2,M2198.png,M2141.png,M2201.png,M2142.png,D,1,0.265534945,0.3,0.3,0.5,2017-04-03-10:14:57,1.0198938150846104,1,M2198.png-M2141.png-M2201.png-M2142.png,0,0,0,0,0,0,0,30400
603,CFS,603,176,NA,Complete,incongruent,misaligned,S,M5,M5152.png,M5154.png,M5152.png,M5178.png,S,1,0.015667186,0.3,0.3,0.5,2017-04-03-10:14:59,-0.929812580726806,1,M5152.png-M5154.png-M5152.png-M5178.png,0,1,1,0,0,1,0,30400
603,CFS,603,177,NA,Complete,congruent,aligned,S,M2,M2201.png,M2142.png,M2201.png,M2142.png,S,1,0.060844053,0.3,0.3,0.5,2017-04-03-10:15:01,-0.41694862168696195,1,M2201.png-M2142.png-M2201.png-M2142.png,0,0,0,0,0,0,0,30400
603,CFS,603,178,NA,Complete,incongruent,aligned,D,M5,M5178.png,M5146.png,M5154.png,M5146.png,D,1,0.145421077,0.3,0.3,0.5,2017-04-03-10:15:03,-0.12465480647010499,1,M5178.png-M5146.png-M5154.png-M5146.png,0,1,0,0,0,0,0,30400
603,CFS,603,179,NA,Complete,congruent,misaligned,S,F3,F3047.png,F3062.png,F3047.png,F3062.png,S,1,0.170581503,0.3,0.3,0.5,2017-04-03-10:15:06,0.8581390236190007,1,F3047.png-F3062.png-F3047.png-F3062.png,0,0,1,0,0,0,0,30400
603,CFS,603,180,NA,Complete,incongruent,aligned,D,F3,F3047.png,F3062.png,F3112.png,F3062.png,D,1,0.105752416,0.3,0.3,0.5,2017-04-03-10:15:08,-0.49458934327853665,1,F3047.png-F3062.png-F3112.png-F3062.png,0,1,0,0,0,0,0,30400
603,CFS,603,181,NA,Complete,congruent,aligned,D,F5,F5078.png,F5068.png,F5076.png,F5033.png,D,1,0.125502257,0.3,0.3,0.5,2017-04-03-10:15:10,-0.5073261023016415,1,F5078.png-F5068.png-F5076.png-F5033.png,0,0,0,0,0,0,0,30400
603,CFS,603,182,NA,Complete,congruent,misaligned,D,F1,F1002.png,F1015.png,F1046.png,F1059.png,D,1,0.086359632,0.3,0.3,0.5,2017-04-03-10:15:13,-0.6268239746942709,1,F1002.png-F1015.png-F1046.png-F1059.png,0,0,1,0,0,0,0,30400
603,CFS,603,183,NA,Complete,congruent,misaligned,S,M4,M4197.png,M4134.png,M4197.png,M4134.png,S,1,5.74472e-4,0.3,0.3,0.5,2017-04-03-10:15:15,-1.084817130192662,1,M4197.png-M4134.png-M4197.png-M4134.png,0,0,1,0,0,0,0,30400
603,CFS,603,184,NA,Complete,incongruent,aligned,D,M5,M5152.png,M5154.png,M5146.png,M5154.png,D,1,0.030732357,0.3,0.3,0.5,2017-04-03-10:15:17,-1.1941972977165807,1,M5152.png-M5154.png-M5146.png-M5154.png,0,1,0,0,0,0,0,30400
603,CFS,603,185,NA,Complete,congruent,misaligned,S,F3,F3062.png,F3079.png,F3062.png,F3079.png,S,1,0.140578612,0.3,0.3,0.5,2017-04-03-10:15:20,0.5152455482274414,1,F3062.png-F3079.png-F3062.png-F3079.png,0,0,1,0,0,0,0,30400
603,CFS,603,186,NA,Complete,incongruent,misaligned,S,M4,M4197.png,M4134.png,M4197.png,M4188.png,S,1,0.044884071,0.3,0.3,0.5,2017-04-03-10:15:22,-0.6106589291015785,1,M4197.png-M4134.png-M4197.png-M4188.png,0,1,1,0,0,1,0,30400
603,CFS,603,187,NA,Complete,incongruent,aligned,S,F3,F3047.png,F3062.png,F3047.png,F3079.png,S,1,0.145974677,0.3,0.3,0.5,2017-04-03-10:15:24,0.2945776491852225,1,F3047.png-F3062.png-F3047.png-F3079.png,0,1,0,0,0,0,0,30400
603,CFS,603,188,NA,Complete,incongruent,aligned,D,M5,M5146.png,M5152.png,M5178.png,M5152.png,D,1,0.146101615,0.3,0.3,0.5,2017-04-03-10:15:27,-0.118308373203539,1,M5146.png-M5152.png-M5178.png-M5152.png,0,1,0,0,0,0,0,30400
603,CFS,603,189,NA,Complete,congruent,misaligned,D,M1,M1125.png,M1122.png,M1119.png,M1186.png,D,1,0.166377492,0.3,0.3,0.5,2017-04-03-10:15:29,0.09814546650847043,1,M1125.png-M1122.png-M1119.png-M1186.png,0,0,1,0,0,0,0,30400
603,CFS,603,190,NA,Complete,congruent,aligned,S,F2,F2017.png,F2016.png,F2017.png,F2016.png,S,1,0.156434922,0.3,0.3,0.5,2017-04-03-10:15:31,0.5630782589676792,1,F2017.png-F2016.png-F2017.png-F2016.png,0,0,0,0,0,0,0,30400
603,CFS,603,191,NA,Complete,incongruent,misaligned,S,F2,F2032.png,F2067.png,F2032.png,F2017.png,S,1,0.015945954,0.3,0.3,0.5,2017-04-03-10:15:34,-0.9267674297753523,1,F2032.png-F2067.png-F2032.png-F2017.png,0,1,1,0,0,1,0,30400
603,CFS,603,192,NA,Complete,incongruent,misaligned,S,F5,F5076.png,F5033.png,F5076.png,F5078.png,S,1,0.036154426,0.3,0.3,0.5,2017-04-03-10:15:36,-0.7060181051103114,1,F5076.png-F5033.png-F5076.png-F5078.png,0,1,1,0,0,1,0,30400
603,CFS,603,193,NA,Complete,incongruent,aligned,S,F1,F1059.png,F1002.png,F1059.png,F1015.png,S,1,0.145600022,0.3,0.3,0.5,2017-04-03-10:15:38,0.2902136482095888,1,F1059.png-F1002.png-F1059.png-F1015.png,0,1,0,0,0,0,0,30400
603,CFS,603,194,NA,Complete,congruent,aligned,S,F5,F5076.png,F5033.png,F5076.png,F5033.png,S,1,0.01574169,0.3,0.3,0.5,2017-04-03-10:15:40,-0.8793518677652385,1,F5076.png-F5033.png-F5076.png-F5033.png,0,0,0,0,0,0,0,30400
603,CFS,603,195,NA,Complete,incongruent,misaligned,D,M5,M5178.png,M5146.png,M5154.png,M5146.png,D,1,0.066015667,0.3,0.3,0.5,2017-04-03-10:15:43,-0.9068806337149772,1,M5178.png-M5146.png-M5154.png-M5146.png,0,1,1,0,0,1,0,30400
603,CFS,603,196,NA,Complete,congruent,misaligned,S,F4,F4018.png,F4040.png,F4018.png,F4040.png,S,1,0.211187316,0.3,0.3,0.5,2017-04-03-10:15:45,1.3222099140098555,1,F4018.png-F4040.png-F4018.png-F4040.png,0,0,1,0,0,0,0,30400
603,CFS,603,197,NA,Complete,congruent,aligned,S,M2,M2142.png,M2198.png,M2142.png,M2198.png,S,1,0.400799949,0.3,0.3,0.5,2017-04-03-10:15:48,3.06838339592482,0,M2142.png-M2198.png-M2142.png-M2198.png,0,0,0,0,0,0,0,30400
603,CFS,603,198,NA,Complete,incongruent,misaligned,D,F2,F2017.png,F2016.png,F2067.png,F2016.png,D,1,0.075438745,0.3,0.3,0.5,2017-04-03-10:15:50,-0.8052886216516528,1,F2017.png-F2016.png-F2067.png-F2016.png,0,1,1,0,0,1,0,30400
603,CFS,603,199,NA,Complete,congruent,misaligned,S,M3,M3187.png,M3013.png,M3187.png,M3013.png,S,1,0.371286207,0.3,0.3,0.5,2017-04-03-10:15:53,3.1519290947822824,0,M3187.png-M3013.png-M3187.png-M3013.png,0,0,1,0,0,0,0,30400
603,CFS,603,200,NA,Complete,incongruent,aligned,S,M4,M4136.png,M4197.png,M4136.png,M4134.png,S,1,0.235435909,0.3,0.3,0.5,2017-04-03-10:15:55,1.336626744297776,1,M4136.png-M4197.png-M4136.png-M4134.png,0,1,0,0,0,0,0,30400
603,CFS,603,201,NA,Complete,incongruent,aligned,S,F5,F5078.png,F5068.png,F5078.png,F5076.png,D,0,0.816024306,0.3,0.3,0.5,2017-04-03-10:16:12,NaN,NA,F5078.png-F5068.png-F5078.png-F5076.png,0,1,0,0,0,0,0,30400
603,CFS,603,202,NA,Complete,congruent,aligned,D,F3,F3112.png,F3047.png,F3062.png,F3079.png,D,1,0.111131032,0.3,0.3,0.5,2017-04-03-10:16:15,-0.6640610859023223,1,F3112.png-F3047.png-F3062.png-F3079.png,0,0,0,0,0,0,0,30400
603,CFS,603,203,NA,Complete,congruent,misaligned,S,M1,M1186.png,M1125.png,M1186.png,M1125.png,S,1,0.255615641,0.3,0.3,0.5,2017-04-03-10:16:17,1.8299670753139343,1,M1186.png-M1125.png-M1186.png-M1125.png,0,0,1,0,0,0,0,30400
603,CFS,603,204,NA,Complete,congruent,misaligned,S,M2,M2198.png,M2141.png,M2198.png,M2141.png,S,1,0.055378873,0.3,0.3,0.5,2017-04-03-10:16:20,-0.4584751044977832,1,M2198.png-M2141.png-M2198.png-M2141.png,0,0,1,0,0,0,0,30400
603,CFS,603,205,NA,Complete,incongruent,aligned,S,M4,M4134.png,M4188.png,M4134.png,M4136.png,S,1,0.101311979,0.3,0.3,0.5,2017-04-03-10:16:22,-0.22565578596560631,1,M4134.png-M4188.png-M4134.png-M4136.png,0,1,0,0,0,0,0,30400
603,CFS,603,206,NA,Complete,congruent,misaligned,D,F1,F1015.png,F1046.png,F1059.png,F1002.png,D,1,0.076062593,0.3,0.3,0.5,2017-04-03-10:16:24,-0.7201161298440442,1,F1015.png-F1046.png-F1059.png-F1002.png,0,0,1,0,0,0,0,30400
603,CFS,603,207,NA,Complete,congruent,aligned,D,M2,M2201.png,M2142.png,M2198.png,M2141.png,D,1,0.135931088,0.3,0.3,0.5,2017-04-03-10:16:26,-0.39358752707515454,1,M2201.png-M2142.png-M2198.png-M2141.png,0,0,0,0,0,0,0,30400
603,CFS,603,208,NA,Complete,incongruent,misaligned,S,F2,F2016.png,F2032.png,F2016.png,F2067.png,D,0,6.04923e-4,0.3,0.3,0.5,2017-04-03-10:16:29,-0.7071067811865476,1,F2016.png-F2032.png-F2016.png-F2067.png,0,1,1,0,0,1,0,30400
603,CFS,603,209,NA,Complete,incongruent,aligned,D,F1,F1059.png,F1002.png,F1046.png,F1002.png,D,1,0.231334201,0.3,0.3,0.5,2017-04-03-10:16:31,0.6765376444852055,1,F1059.png-F1002.png-F1046.png-F1002.png,0,1,0,0,0,0,0,30400
603,CFS,603,210,NA,Complete,congruent,aligned,S,M5,M5152.png,M5154.png,M5152.png,M5154.png,S,1,0.07079894,0.3,0.3,0.5,2017-04-03-10:16:33,-0.3148880697122808,1,M5152.png-M5154.png-M5152.png-M5154.png,0,0,0,0,0,0,0,30400
603,CFS,603,211,NA,Complete,congruent,misaligned,D,F3,F3062.png,F3079.png,F3112.png,F3047.png,D,1,0.076072173,0.3,0.3,0.5,2017-04-03-10:16:36,-0.7200293341306031,1,F3062.png-F3079.png-F3112.png-F3047.png,0,0,1,0,0,0,0,30400
603,CFS,603,212,NA,Complete,incongruent,aligned,D,F2,F2016.png,F2032.png,F2017.png,F2032.png,D,1,0.201003871,0.3,0.3,0.5,2017-04-03-10:16:38,0.39368875831289757,1,F2016.png-F2032.png-F2017.png-F2032.png,0,1,0,0,0,0,0,30400
603,CFS,603,213,NA,Complete,incongruent,aligned,S,F3,F3062.png,F3079.png,F3062.png,F3112.png,S,1,0.150871544,0.3,0.3,0.5,2017-04-03-10:16:41,0.35161661133853295,1,F3062.png-F3079.png-F3062.png-F3112.png,0,1,0,0,0,0,0,30400
603,CFS,603,214,NA,Complete,congruent,misaligned,S,F3,F3112.png,F3047.png,F3112.png,F3047.png,S,1,0.095490961,0.3,0.3,0.5,2017-04-03-10:16:43,-4.683971716398139e-5,1,F3112.png-F3047.png-F3112.png-F3047.png,0,0,1,0,0,0,0,30400
603,CFS,603,215,NA,Complete,congruent,aligned,D,M4,M4134.png,M4188.png,M4136.png,M4197.png,S,0,0.145730724,0.3,0.3,0.5,2017-04-03-10:16:45,-0.5992061050080876,1,M4134.png-M4188.png-M4136.png-M4197.png,0,0,0,0,0,0,0,30400
603,CFS,603,216,NA,Complete,incongruent,misaligned,S,M2,M2141.png,M2201.png,M2141.png,M2142.png,S,1,5.76867e-4,0.3,0.3,0.5,2017-04-03-10:16:47,-1.0946532341037676,1,M2141.png-M2201.png-M2141.png-M2142.png,0,1,1,0,0,1,0,30400
603,CFS,603,217,NA,Complete,incongruent,misaligned,D,F4,F4064.png,F4020.png,F4040.png,F4020.png,D,1,0.050746381,0.3,0.3,0.5,2017-04-03-10:16:50,-1.071501736024684,1,F4064.png-F4020.png-F4040.png-F4020.png,0,1,1,0,0,1,0,30400
603,CFS,603,218,NA,Complete,incongruent,misaligned,D,F1,F1015.png,F1046.png,F1002.png,F1046.png,D,1,0.115465403,0.3,0.3,0.5,2017-04-03-10:16:52,-0.37375354124686855,1,F1015.png-F1046.png-F1002.png-F1046.png,0,1,1,0,0,1,0,30400
603,CFS,603,219,NA,Complete,congruent,misaligned,S,F5,F5033.png,F5078.png,F5033.png,F5078.png,S,1,0.070650104,0.3,0.3,0.5,2017-04-03-10:16:54,-0.2839450743384457,1,F5033.png-F5078.png-F5033.png-F5078.png,0,0,1,0,0,0,0,30400
603,CFS,603,220,NA,Complete,incongruent,aligned,D,M4,M4197.png,M4134.png,M4136.png,M4134.png,D,1,0.100931506,0.3,0.3,0.5,2017-04-03-10:16:57,-0.5395472789105242,1,M4197.png-M4134.png-M4136.png-M4134.png,0,1,0,0,0,0,0,30400
603,CFS,603,221,NA,Complete,congruent,misaligned,D,F2,F2032.png,F2067.png,F2017.png,F2016.png,D,1,0.190663957,0.3,0.3,0.5,2017-04-03-10:16:59,0.31818315509249334,1,F2032.png-F2067.png-F2017.png-F2016.png,0,0,1,0,0,0,0,30400
603,CFS,603,222,NA,Complete,congruent,aligned,D,M3,M3153.png,M3183.png,M3187.png,M3013.png,S,0,0.165896085,0.3,0.3,0.5,2017-04-03-10:17:02,-0.4353539533840728,1,M3153.png-M3183.png-M3187.png-M3013.png,0,0,0,0,0,0,0,30400
603,CFS,603,223,NA,Complete,congruent,misaligned,D,F4,F4018.png,F4040.png,F4064.png,F4020.png,S,0,0.18103901,0.3,0.3,0.5,2017-04-03-10:17:04,0.7564663691757386,1,F4018.png-F4040.png-F4064.png-F4020.png,0,0,1,0,0,0,0,30400
603,CFS,603,224,NA,Complete,incongruent,aligned,S,F4,F4064.png,F4020.png,F4064.png,F4018.png,S,1,0.070565935,0.3,0.3,0.5,2017-04-03-10:17:06,-0.5837873096684182,1,F4064.png-F4020.png-F4064.png-F4018.png,0,1,0,0,0,0,0,30400
603,CFS,603,225,NA,Complete,congruent,aligned,D,M3,M3183.png,M3187.png,M3013.png,M3153.png,D,1,0.120687655,0.3,0.3,0.5,2017-04-03-10:17:09,-0.5598349570105341,1,M3183.png-M3187.png-M3013.png-M3153.png,0,0,0,0,0,0,0,30400
603,CFS,603,226,NA,Complete,congruent,aligned,D,M1,M1186.png,M1125.png,M1122.png,M1119.png,D,1,0.260909061,0.3,0.3,0.5,2017-04-03-10:17:11,0.9694431504489476,1,M1186.png-M1125.png-M1122.png-M1119.png,0,0,0,0,0,0,0,30400
603,CFS,603,227,NA,Complete,incongruent,aligned,S,F3,F3079.png,F3112.png,F3079.png,F3047.png,S,1,0.19143322,0.3,0.3,0.5,2017-04-03-10:17:13,0.8240811283937929,1,F3079.png-F3112.png-F3079.png-F3047.png,0,1,0,0,0,0,0,30400
603,CFS,603,228,NA,Complete,incongruent,aligned,S,F3,F3112.png,F3047.png,F3112.png,F3062.png,S,1,6.58299e-4,0.3,0.3,0.5,2017-04-03-10:17:16,-1.3980750989899173,1,F3112.png-F3047.png-F3112.png-F3062.png,0,1,0,0,0,0,0,30400
603,CFS,603,229,NA,Complete,incongruent,aligned,S,F4,F4040.png,F4064.png,F4040.png,F4020.png,S,1,0.035407511,0.3,0.3,0.5,2017-04-03-10:17:18,-0.9933144656859373,1,F4040.png-F4064.png-F4040.png-F4020.png,0,1,0,0,0,0,0,30400
603,CFS,603,230,NA,Complete,incongruent,misaligned,D,M5,M5146.png,M5152.png,M5178.png,M5152.png,D,1,0.050991126,0.3,0.3,0.5,2017-04-03-10:17:20,-1.0688630932168417,1,M5146.png-M5152.png-M5178.png-M5152.png,0,1,1,0,0,1,0,30400
603,CFS,603,231,NA,Complete,congruent,aligned,D,F4,F4020.png,F4018.png,F4040.png,F4064.png,D,1,0.220712868,0.3,0.3,0.5,2017-04-03-10:17:23,0.5310567463209213,1,F4020.png-F4018.png-F4040.png-F4064.png,0,0,0,0,0,0,0,30400
603,CFS,603,232,NA,Complete,congruent,aligned,D,F3,F3079.png,F3112.png,F3047.png,F3062.png,D,1,0.126013922,0.3,0.3,0.5,2017-04-03-10:17:25,-0.5017457982298563,1,F3079.png-F3112.png-F3047.png-F3062.png,0,0,0,0,0,0,0,30400
603,CFS,603,233,NA,Complete,incongruent,aligned,S,F2,F2032.png,F2067.png,F2032.png,F2017.png,S,1,0.08576771,0.3,0.3,0.5,2017-04-03-10:17:27,-0.40671624180234367,1,F2032.png-F2067.png-F2032.png-F2017.png,0,1,0,0,0,0,0,30400
603,CFS,603,234,NA,Complete,congruent,misaligned,S,M3,M3153.png,M3183.png,M3153.png,M3183.png,S,1,0.05115878,0.3,0.3,0.5,2017-04-03-10:17:30,-0.5067052018989168,1,M3153.png-M3183.png-M3153.png-M3183.png,0,0,1,0,0,0,0,30400
603,CFS,603,235,NA,Complete,incongruent,misaligned,D,F3,F3079.png,F3112.png,F3062.png,F3112.png,D,1,0.241121777,0.3,0.3,0.5,2017-04-03-10:17:32,0.9809719383938165,1,F3079.png-F3112.png-F3062.png-F3112.png,0,1,1,0,0,1,0,30400
603,CFS,603,236,NA,Complete,congruent,aligned,D,M3,M3187.png,M3013.png,M3153.png,M3183.png,S,0,0.28629736,0.3,0.3,0.5,2017-04-03-10:17:35,0.5429577151759252,1,M3187.png-M3013.png-M3153.png-M3183.png,0,0,0,0,0,0,0,30400
603,CFS,603,237,NA,Complete,congruent,aligned,S,F1,F1059.png,F1002.png,F1059.png,F1002.png,S,1,0.110794013,0.3,0.3,0.5,2017-04-03-10:17:37,0.09515367427212267,1,F1059.png-F1002.png-F1059.png-F1002.png,0,0,0,0,0,0,0,30400
603,CFS,603,238,NA,Complete,incongruent,misaligned,S,M4,M4134.png,M4188.png,M4134.png,M4136.png,S,1,0.016373301,0.3,0.3,0.5,2017-04-03-10:17:39,-0.9220992608189051,1,M4134.png-M4188.png-M4134.png-M4136.png,0,1,1,0,0,1,0,30400
603,CFS,603,239,NA,Complete,incongruent,misaligned,D,M4,M4188.png,M4136.png,M4134.png,M4136.png,S,0,0.065484991,0.3,0.3,0.5,2017-04-03-10:17:41,-1.1257342584540726,1,M4188.png-M4136.png-M4134.png-M4136.png,0,1,1,0,0,1,0,30400
603,CFS,603,240,NA,Complete,congruent,aligned,D,M2,M2142.png,M2198.png,M2141.png,M2201.png,D,1,0.185520356,0.3,0.3,0.5,2017-04-03-10:17:44,0.14724132410139854,1,M2142.png-M2198.png-M2141.png-M2201.png,0,0,0,0,0,0,0,30400
603,CFS,603,241,NA,Complete,incongruent,aligned,S,F5,F5076.png,F5033.png,F5076.png,F5078.png,S,1,0.096290226,0.3,0.3,0.5,2017-04-03-10:17:58,-0.2841494267588467,1,F5076.png-F5033.png-F5076.png-F5078.png,0,1,0,0,0,0,0,30400
603,CFS,603,242,NA,Complete,congruent,misaligned,S,F5,F5078.png,F5068.png,F5078.png,F5068.png,S,1,6.72669e-4,0.3,0.3,0.5,2017-04-03-10:18:00,-1.0836948679878955,1,F5078.png-F5068.png-F5078.png-F5068.png,0,0,1,0,0,0,0,30400
603,CFS,603,243,NA,Complete,congruent,aligned,D,F2,F2016.png,F2032.png,F2067.png,F2017.png,D,1,0.066423853,0.3,0.3,0.5,2017-04-03-10:18:02,-1.1516450578600153,1,F2016.png-F2032.png-F2067.png-F2017.png,0,0,0,0,0,0,0,30400
603,CFS,603,244,NA,Complete,congruent,aligned,S,M1,M1125.png,M1122.png,M1125.png,M1122.png,D,0,0.160566397,0.3,0.3,0.5,2017-04-03-10:18:04,-0.4483794275325417,1,M1125.png-M1122.png-M1125.png-M1122.png,0,0,0,0,0,0,0,30400
603,CFS,603,245,NA,Complete,incongruent,aligned,D,M2,M2198.png,M2141.png,M2142.png,M2141.png,D,1,0.161008798,0.3,0.3,0.5,2017-04-03-10:18:07,0.02071022987518686,1,M2198.png-M2141.png-M2142.png-M2141.png,0,1,0,0,0,0,0,30400
603,CFS,603,246,NA,Complete,incongruent,aligned,S,M5,M5152.png,M5154.png,M5152.png,M5178.png,S,1,0.105464667,0.3,0.3,0.5,2017-04-03-10:18:09,-0.17728505960801758,1,M5152.png-M5154.png-M5152.png-M5178.png,0,1,0,0,0,0,0,30400
603,CFS,603,247,NA,Complete,congruent,aligned,D,F4,F4018.png,F4040.png,F4064.png,F4020.png,D,1,0.155371516,0.3,0.3,0.5,2017-04-03-10:18:12,-0.1815669676746712,1,F4018.png-F4040.png-F4064.png-F4020.png,0,0,0,0,0,0,0,30400
603,CFS,603,248,NA,Complete,incongruent,aligned,S,M2,M2141.png,M2201.png,M2141.png,M2142.png,S,1,0.116180156,0.3,0.3,0.5,2017-04-03-10:18:14,-0.052470484998330444,1,M2141.png-M2201.png-M2141.png-M2142.png,0,1,0,0,0,0,0,30400
603,CFS,603,249,NA,Complete,congruent,aligned,S,F3,F3112.png,F3047.png,F3112.png,F3047.png,S,1,6.49617e-4,0.3,0.3,0.5,2017-04-03-10:18:16,-1.0340804247867479,1,F3112.png-F3047.png-F3112.png-F3047.png,0,0,0,0,0,0,0,30400
603,CFS,603,250,NA,Complete,incongruent,aligned,S,F5,F5033.png,F5078.png,F5033.png,F5068.png,S,1,0.0311377,0.3,0.3,0.5,2017-04-03-10:18:18,-1.04304944685467,1,F5033.png-F5078.png-F5033.png-F5068.png,0,1,0,0,0,0,0,30400
603,CFS,603,251,NA,Complete,congruent,misaligned,D,F3,F3047.png,F3062.png,F3079.png,F3112.png,D,1,0.120662678,0.3,0.3,0.5,2017-04-03-10:18:21,-0.31603510718179395,1,F3047.png-F3062.png-F3079.png-F3112.png,0,0,1,0,0,0,0,30400
603,CFS,603,252,NA,Complete,congruent,misaligned,S,F4,F4064.png,F4020.png,F4064.png,F4020.png,S,1,0.030836222,0.3,0.3,0.5,2017-04-03-10:18:23,-0.7389652378223395,1,F4064.png-F4020.png-F4064.png-F4020.png,0,0,1,0,0,0,0,30400
603,CFS,603,253,NA,Complete,congruent,aligned,D,M5,M5178.png,M5146.png,M5152.png,M5154.png,D,1,0.106345749,0.3,0.3,0.5,2017-04-03-10:18:25,-0.7162501826932789,1,M5178.png-M5146.png-M5152.png-M5154.png,0,0,0,0,0,0,0,30400
603,CFS,603,254,NA,Complete,incongruent,misaligned,D,F5,F5078.png,F5068.png,F5033.png,F5068.png,D,1,0.150944081,0.3,0.3,0.5,2017-04-03-10:18:28,0.008748894089737861,1,F5078.png-F5068.png-F5033.png-F5068.png,0,1,1,0,0,1,0,30400
603,CFS,603,255,NA,Complete,incongruent,misaligned,S,M3,M3153.png,M3183.png,M3153.png,M3187.png,S,1,0.100791332,0.3,0.3,0.5,2017-04-03-10:18:30,4.9792944411792083e-5,1,M3153.png-M3183.png-M3153.png-M3187.png,0,1,1,0,0,1,0,30400
603,CFS,603,256,NA,Complete,incongruent,aligned,D,M1,M1125.png,M1122.png,M1186.png,M1122.png,D,1,0.160595138,0.3,0.3,0.5,2017-04-03-10:18:32,0.016852597259450736,1,M1125.png-M1122.png-M1186.png-M1122.png,0,1,0,0,0,0,0,30400
603,CFS,603,257,NA,Complete,congruent,aligned,D,F2,F2017.png,F2016.png,F2032.png,F2067.png,D,1,0.306032638,0.3,0.3,0.5,2017-04-03-10:18:35,1.461568428641938,1,F2017.png-F2016.png-F2032.png-F2067.png,0,0,0,0,0,0,0,30400
603,CFS,603,258,NA,Complete,incongruent,misaligned,D,M3,M3187.png,M3013.png,M3183.png,M3013.png,D,1,0.105577235,0.3,0.3,0.5,2017-04-03-10:18:37,-0.4803597778438888,1,M3187.png-M3013.png-M3183.png-M3013.png,0,1,1,0,0,1,0,30400
603,CFS,603,259,NA,Complete,incongruent,aligned,D,F5,F5076.png,F5033.png,F5068.png,F5033.png,D,1,0.116456957,0.3,0.3,0.5,2017-04-03-10:18:40,-0.39476294841782117,1,F5076.png-F5033.png-F5068.png-F5033.png,0,1,0,0,0,0,0,30400
603,CFS,603,260,NA,Complete,congruent,misaligned,D,M3,M3183.png,M3187.png,M3013.png,M3153.png,D,1,0.160520207,0.3,0.3,0.5,2017-04-03-10:18:42,0.04507790592368109,1,M3183.png-M3187.png-M3013.png-M3153.png,0,0,1,0,0,0,0,30400
603,CFS,603,261,NA,Complete,incongruent,aligned,S,M2,M2142.png,M2198.png,M2142.png,M2141.png,S,1,0.161094336,0.3,0.3,0.5,2017-04-03-10:18:44,0.47069222560152296,1,M2142.png-M2198.png-M2142.png-M2141.png,0,1,0,0,0,0,0,30400
603,CFS,603,262,NA,Complete,congruent,misaligned,S,M1,M1119.png,M1186.png,M1119.png,M1186.png,D,0,0.370615376,0.3,0.3,0.5,2017-04-03-10:18:47,NaN,NA,M1119.png-M1186.png-M1119.png-M1186.png,0,0,1,0,0,0,0,30400
603,CFS,603,263,NA,Complete,incongruent,misaligned,S,F3,F3079.png,F3112.png,F3079.png,F3047.png,S,1,0.135705353,0.3,0.3,0.5,2017-04-03-10:18:49,0.3814366962734243,1,F3079.png-F3112.png-F3079.png-F3047.png,0,1,1,0,0,1,0,30400
603,CFS,603,264,NA,Complete,incongruent,misaligned,S,F3,F3062.png,F3079.png,F3062.png,F3112.png,S,1,0.171194681,0.3,0.3,0.5,2017-04-03-10:18:52,0.7691080248536417,1,F3062.png-F3079.png-F3062.png-F3112.png,0,1,1,0,0,1,0,30400
603,CFS,603,265,NA,Complete,congruent,aligned,S,F2,F2016.png,F2032.png,F2016.png,F2032.png,S,1,6.84987e-4,0.3,0.3,0.5,2017-04-03-10:18:54,-1.033717800708409,1,F2016.png-F2032.png-F2016.png-F2032.png,0,0,0,0,0,0,0,30400
603,CFS,603,266,NA,Complete,congruent,misaligned,D,M2,M2201.png,M2142.png,M2198.png,M2141.png,D,1,0.106195181,0.3,0.3,0.5,2017-04-03-10:18:56,-0.4471120094595146,1,M2201.png-M2142.png-M2198.png-M2141.png,0,0,1,0,0,0,0,30400
603,CFS,603,267,NA,Complete,congruent,misaligned,D,M3,M3187.png,M3013.png,M3153.png,M3183.png,D,1,0.225821697,0.3,0.3,0.5,2017-04-03-10:18:59,0.6367156317389728,1,M3187.png-M3013.png-M3153.png-M3183.png,0,0,1,0,0,0,0,30400
603,CFS,603,268,NA,Complete,congruent,misaligned,S,M5,M5146.png,M5152.png,M5146.png,M5152.png,S,1,0.095539889,0.3,0.3,0.5,2017-04-03-10:19:01,5.12342795079904e-4,1,M5146.png-M5152.png-M5146.png-M5152.png,0,0,1,0,0,0,0,30400
603,CFS,603,269,NA,Complete,incongruent,misaligned,D,M2,M2201.png,M2142.png,M2141.png,M2142.png,S,0,0.22584028,0.3,0.3,0.5,2017-04-03-10:19:03,0.14438013157893803,1,M2201.png-M2142.png-M2141.png-M2142.png,0,1,1,0,0,1,0,30400
603,CFS,603,270,NA,Complete,incongruent,misaligned,S,M2,M2198.png,M2141.png,M2198.png,M2201.png,S,1,0.150540727,0.3,0.3,0.5,2017-04-03-10:19:06,0.5434924316923767,1,M2198.png-M2141.png-M2198.png-M2201.png,0,1,1,0,0,1,0,30400
603,CFS,603,271,NA,Complete,congruent,aligned,S,M1,M1119.png,M1186.png,M1119.png,M1186.png,S,1,0.071324826,0.3,0.3,0.5,2017-04-03-10:19:08,-0.30949652529437266,1,M1119.png-M1186.png-M1119.png-M1186.png,0,0,0,0,0,0,0,30400
603,CFS,603,272,NA,Complete,incongruent,misaligned,S,F2,F2067.png,F2017.png,F2067.png,F2016.png,S,1,0.045328375,0.3,0.3,0.5,2017-04-03-10:19:10,-0.6058055286096474,1,F2067.png-F2017.png-F2067.png-F2016.png,0,1,1,0,0,1,0,30400
603,CFS,603,273,NA,Complete,congruent,aligned,S,F1,F1046.png,F1059.png,F1046.png,F1059.png,S,1,0.105737982,0.3,0.3,0.5,2017-04-03-10:19:13,0.0433176951534145,1,F1046.png-F1059.png-F1046.png-F1059.png,0,0,0,0,0,0,0,30400
603,CFS,603,274,NA,Complete,incongruent,aligned,S,M4,M4188.png,M4136.png,M4188.png,M4197.png,S,1,0.116340283,0.3,0.3,0.5,2017-04-03-10:19:15,-0.050605317352829166,1,M4188.png-M4136.png-M4188.png-M4197.png,0,1,0,0,0,0,0,30400
603,CFS,603,275,NA,Complete,incongruent,misaligned,S,F4,F4040.png,F4064.png,F4040.png,F4020.png,S,1,0.030453504,0.3,0.3,0.5,2017-04-03-10:19:17,-0.7682927135749233,1,F4040.png-F4064.png-F4040.png-F4020.png,0,1,1,0,0,1,0,30400
603,CFS,603,276,NA,Complete,congruent,aligned,D,F2,F2032.png,F2067.png,F2017.png,F2016.png,D,1,0.076205954,0.3,0.3,0.5,2017-04-03-10:19:20,-1.0449598281864694,1,F2032.png-F2067.png-F2017.png-F2016.png,0,0,0,0,0,0,0,30400
603,CFS,603,277,NA,Complete,incongruent,misaligned,S,M5,M5154.png,M5178.png,M5154.png,M5146.png,S,1,0.201094884,0.3,0.3,0.5,2017-04-03-10:19:22,1.0957259710099683,1,M5154.png-M5178.png-M5154.png-M5146.png,0,1,1,0,0,1,0,30400
603,CFS,603,278,NA,Complete,congruent,misaligned,S,M4,M4134.png,M4188.png,M4134.png,M4188.png,S,1,0.120967535,0.3,0.3,0.5,2017-04-03-10:19:24,0.29111680181092203,1,M4134.png-M4188.png-M4134.png-M4188.png,0,0,1,0,0,0,0,30400
603,CFS,603,279,NA,Complete,incongruent,misaligned,S,M1,M1119.png,M1186.png,M1119.png,M1125.png,S,1,0.041017763,0.3,0.3,0.5,2017-04-03-10:19:27,-0.6528929426354589,1,M1119.png-M1186.png-M1119.png-M1125.png,0,1,1,0,0,1,0,30400
603,CFS,603,280,NA,Complete,congruent,aligned,S,M5,M5154.png,M5178.png,M5154.png,M5178.png,S,1,0.256347502,0.3,0.3,0.5,2017-04-03-10:19:29,1.5874126450852202,1,M5154.png-M5178.png-M5154.png-M5178.png,0,0,0,0,0,0,0,30400
603,CFS,603,281,NA,Complete,congruent,aligned,D,F2,F2067.png,F2017.png,F2016.png,F2032.png,D,1,0.250608943,0.3,0.3,0.5,2017-04-03-10:19:44,0.8571083407291721,1,F2067.png-F2017.png-F2016.png-F2032.png,0,0,0,0,0,0,0,30400
603,CFS,603,282,NA,Complete,incongruent,aligned,S,M2,M2201.png,M2142.png,M2201.png,M2198.png,S,1,0.271406258,0.3,0.3,0.5,2017-04-03-10:19:47,1.7556112450514962,1,M2201.png-M2142.png-M2201.png-M2198.png,0,1,0,0,0,0,0,30400
603,CFS,603,283,NA,Complete,congruent,misaligned,S,M1,M1122.png,M1119.png,M1122.png,M1119.png,S,1,0.210597447,0.3,0.3,0.5,2017-04-03-10:19:49,1.3154684892772939,1,M1122.png-M1119.png-M1122.png-M1119.png,0,0,1,0,0,0,0,30400
603,CFS,603,284,NA,Complete,incongruent,aligned,D,F2,F2067.png,F2017.png,F2032.png,F2017.png,D,1,0.20103706,0.3,0.3,0.5,2017-04-03-10:19:51,0.39399826604602045,1,F2067.png-F2017.png-F2032.png-F2017.png,0,1,0,0,0,0,0,30400
603,CFS,603,285,NA,Complete,incongruent,aligned,S,M5,M5178.png,M5146.png,M5178.png,M5152.png,S,1,0.095949102,0.3,0.3,0.5,2017-04-03-10:19:54,-0.28812285689807376,1,M5178.png-M5146.png-M5178.png-M5152.png,0,1,0,0,0,0,0,30400
603,CFS,603,286,NA,Complete,incongruent,misaligned,S,F5,F5068.png,F5076.png,F5068.png,F5033.png,S,1,6.44955e-4,0.3,0.3,0.5,2017-04-03-10:19:56,-1.0939094678250605,1,F5068.png-F5076.png-F5068.png-F5033.png,0,1,1,0,0,1,0,30400
603,CFS,603,287,NA,Complete,congruent,misaligned,D,F1,F1046.png,F1059.png,F1002.png,F1015.png,D,1,0.280960145,0.3,0.3,0.5,2017-04-03-10:19:58,1.1362752280009376,1,F1046.png-F1059.png-F1002.png-F1015.png,0,0,1,0,0,0,0,30400
603,CFS,603,288,NA,Complete,incongruent,aligned,D,F5,F5078.png,F5068.png,F5033.png,F5068.png,D,1,0.075428929,0.3,0.3,0.5,2017-04-03-10:20:01,-0.7773744142886596,1,F5078.png-F5068.png-F5033.png-F5068.png,0,1,0,0,0,0,0,30400
603,CFS,603,289,NA,Complete,congruent,aligned,S,F2,F2032.png,F2067.png,F2032.png,F2067.png,S,1,0.041341374,0.3,0.3,0.5,2017-04-03-10:20:03,-0.6168960629512398,1,F2032.png-F2067.png-F2032.png-F2067.png,0,0,0,0,0,0,0,30400
603,CFS,603,290,NA,Complete,congruent,aligned,S,M3,M3013.png,M3153.png,M3013.png,M3153.png,S,1,6.87724e-4,0.3,0.3,0.5,2017-04-03-10:20:05,-1.0336897401457168,1,M3013.png-M3153.png-M3013.png-M3153.png,0,0,0,0,0,0,0,30400
603,CFS,603,291,NA,Complete,congruent,misaligned,S,F4,F4040.png,F4064.png,F4040.png,F4064.png,S,1,0.081256105,0.3,0.3,0.5,2017-04-03-10:20:08,-0.16273247042983066,1,F4040.png-F4064.png-F4040.png-F4064.png,0,0,1,0,0,0,0,30400
603,CFS,603,292,NA,Complete,congruent,misaligned,D,F3,F3112.png,F3047.png,F3062.png,F3079.png,D,1,0.135789864,0.3,0.3,0.5,2017-04-03-10:20:10,-0.17898135966355308,1,F3112.png-F3047.png-F3062.png-F3079.png,0,0,1,0,0,0,0,30400
603,CFS,603,293,NA,Complete,incongruent,misaligned,D,F1,F1059.png,F1002.png,F1046.png,F1002.png,S,0,0.121244699,0.3,0.3,0.5,2017-04-03-10:20:12,-0.6840824242271468,1,F1059.png-F1002.png-F1046.png-F1002.png,0,1,1,0,0,1,0,30400
603,CFS,603,294,NA,Complete,congruent,misaligned,S,M5,M5154.png,M5178.png,M5154.png,M5178.png,S,1,6.10055e-4,0.3,0.3,0.5,2017-04-03-10:20:14,-1.0844104634306204,1,M5154.png-M5178.png-M5154.png-M5178.png,0,0,1,0,0,0,0,30400
603,CFS,603,295,NA,Complete,congruent,misaligned,S,F2,F2016.png,F2032.png,F2016.png,F2032.png,S,1,6.63773e-4,0.3,0.3,0.5,2017-04-03-10:20:17,-1.0837965375355763,1,F2016.png-F2032.png-F2016.png-F2032.png,0,0,1,0,0,0,0,30400
603,CFS,603,296,NA,Complete,incongruent,misaligned,D,F4,F4020.png,F4018.png,F4064.png,F4018.png,D,1,0.1411938,0.3,0.3,0.5,2017-04-03-10:20:19,-0.09637075630186469,1,F4020.png-F4018.png-F4064.png-F4018.png,0,1,1,0,0,1,0,30400
603,CFS,603,297,NA,Complete,incongruent,misaligned,S,M5,M5178.png,M5146.png,M5178.png,M5152.png,S,1,0.09629878,0.3,0.3,0.5,2017-04-03-10:20:21,-0.0490250614049214,1,M5178.png-M5146.png-M5178.png-M5152.png,0,1,1,0,0,1,0,30400
603,CFS,603,298,NA,Complete,congruent,misaligned,D,M5,M5178.png,M5146.png,M5152.png,M5154.png,D,1,0.075470565,0.3,0.3,0.5,2017-04-03-10:20:24,-0.7254799599731725,1,M5178.png-M5146.png-M5152.png-M5154.png,0,0,1,0,0,0,0,30400
603,CFS,603,299,NA,Complete,congruent,aligned,D,M5,M5154.png,M5178.png,M5146.png,M5152.png,D,1,0.101306846,0.3,0.3,0.5,2017-04-03-10:20:26,-0.7712053016250624,1,M5154.png-M5178.png-M5146.png-M5152.png,0,0,0,0,0,0,0,30400
603,CFS,603,300,NA,Complete,congruent,aligned,S,F3,F3047.png,F3062.png,F3047.png,F3062.png,S,1,5.76183e-4,0.3,0.3,0.5,2017-04-03-10:20:28,-1.0348332926569417,1,F3047.png-F3062.png-F3047.png-F3062.png,0,0,0,0,0,0,0,30400
603,CFS,603,301,NA,Complete,congruent,misaligned,D,F5,F5076.png,F5033.png,F5078.png,F5068.png,D,1,0.066043381,0.3,0.3,0.5,2017-04-03-10:20:31,-0.810891145883361,1,F5076.png-F5033.png-F5078.png-F5068.png,0,0,1,0,0,0,0,30400
603,CFS,603,302,NA,Complete,incongruent,aligned,S,F2,F2016.png,F2032.png,F2016.png,F2067.png,S,1,0.116182551,0.3,0.3,0.5,2017-04-03-10:20:33,-0.05244258791344811,1,F2016.png-F2032.png-F2016.png-F2067.png,0,1,0,0,0,0,0,30400
603,CFS,603,303,NA,Complete,congruent,aligned,S,M2,M2141.png,M2201.png,M2141.png,M2201.png,S,1,0.030413815,0.3,0.3,0.5,2017-04-03-10:20:35,-0.7289287463233258,1,M2141.png-M2201.png-M2141.png-M2201.png,0,0,0,0,0,0,0,30400
603,CFS,603,304,NA,Complete,incongruent,misaligned,S,M1,M1125.png,M1122.png,M1125.png,M1119.png,S,1,0.006225782,0.3,0.3,0.5,2017-04-03-10:20:37,-1.0329467294585761,1,M1125.png-M1122.png-M1125.png-M1119.png,0,1,1,0,0,1,0,30400
603,CFS,603,305,NA,Complete,incongruent,misaligned,D,F2,F2032.png,F2067.png,F2016.png,F2067.png,D,1,0.060767411,0.3,0.3,0.5,2017-04-03-10:20:40,-0.9634630887114671,1,F2032.png-F2067.png-F2016.png-F2067.png,0,1,1,0,0,1,0,30400
603,CFS,603,306,NA,Complete,congruent,misaligned,D,M5,M5152.png,M5154.png,M5178.png,M5146.png,D,1,0.086258013,0.3,0.3,0.5,2017-04-03-10:20:42,-0.6277446525235154,1,M5152.png-M5154.png-M5178.png-M5146.png,0,0,1,0,0,0,0,30400
603,CFS,603,307,NA,Complete,congruent,misaligned,S,M3,M3183.png,M3187.png,M3183.png,M3187.png,S,1,0.035720558,0.3,0.3,0.5,2017-04-03-10:20:44,-0.6831437189553707,1,M3183.png-M3187.png-M3183.png-M3187.png,0,0,1,0,0,0,0,30400
603,CFS,603,308,NA,Complete,incongruent,misaligned,D,F2,F2067.png,F2017.png,F2032.png,F2017.png,D,1,0.046225987,0.3,0.3,0.5,2017-04-03-10:20:46,-1.1202369711335285,1,F2067.png-F2017.png-F2032.png-F2017.png,0,1,1,0,0,1,0,30400
603,CFS,603,309,NA,Complete,congruent,aligned,S,M1,M1186.png,M1125.png,M1186.png,M1125.png,S,1,0.091495662,0.3,0.3,0.5,2017-04-03-10:20:49,-0.10269893372444618,1,M1186.png-M1125.png-M1186.png-M1125.png,0,0,0,0,0,0,0,30400
603,CFS,603,310,NA,Complete,congruent,misaligned,D,M3,M3153.png,M3183.png,M3187.png,M3013.png,D,1,0.225572718,0.3,0.3,0.5,2017-04-03-10:20:51,0.6344598582591372,1,M3153.png-M3183.png-M3187.png-M3013.png,0,0,1,0,0,0,0,30400
603,CFS,603,311,NA,Complete,congruent,aligned,D,F1,F1015.png,F1046.png,F1059.png,F1002.png,D,1,0.085426243,0.3,0.3,0.5,2017-04-03-10:20:54,-0.9444018141543646,1,F1015.png-F1046.png-F1059.png-F1002.png,0,0,0,0,0,0,0,30400
603,CFS,603,312,NA,Complete,congruent,misaligned,S,M3,M3013.png,M3153.png,M3013.png,M3153.png,S,1,0.08077333,0.3,0.3,0.5,2017-04-03-10:20:56,-0.16824995198126372,1,M3013.png-M3153.png-M3013.png-M3153.png,0,0,1,0,0,0,0,30400
603,CFS,603,313,NA,Complete,incongruent,aligned,S,F1,F1002.png,F1015.png,F1002.png,F1046.png,S,1,0.010742519,0.3,0.3,0.5,2017-04-03-10:20:58,-1.2806135786084865,1,F1002.png-F1015.png-F1002.png-F1046.png,0,1,0,0,0,0,0,30400
603,CFS,603,314,NA,Complete,incongruent,misaligned,S,M2,M2201.png,M2142.png,M2201.png,M2198.png,S,1,0.021321832,0.3,0.3,0.5,2017-04-03-10:21:00,-0.86804347291302,1,M2201.png-M2142.png-M2201.png-M2198.png,0,1,1,0,0,1,0,30400
603,CFS,603,315,NA,Complete,congruent,aligned,S,M5,M5146.png,M5152.png,M5146.png,M5152.png,S,1,0.015478575,0.3,0.3,0.5,2017-04-03-10:21:03,-0.8820494033708982,1,M5146.png-M5152.png-M5146.png-M5152.png,0,0,0,0,0,0,0,30400
603,CFS,603,316,NA,Complete,congruent,aligned,S,M3,M3183.png,M3187.png,M3183.png,M3187.png,S,1,5.7413e-4,0.3,0.3,0.5,2017-04-03-10:21:05,-1.0348543406420372,1,M3183.png-M3187.png-M3183.png-M3187.png,0,0,0,0,0,0,0,30400
603,CFS,603,317,NA,Complete,congruent,misaligned,S,F1,F1015.png,F1046.png,F1015.png,F1046.png,S,1,0.085529573,0.3,0.3,0.5,2017-04-03-10:21:07,-0.11389236717129413,1,F1015.png-F1046.png-F1015.png-F1046.png,0,0,1,0,0,0,0,30400
603,CFS,603,318,NA,Complete,incongruent,aligned,S,M5,M5154.png,M5178.png,M5154.png,M5146.png,S,1,0.070943328,0.3,0.3,0.5,2017-04-03-10:21:09,-0.5793914163260169,1,M5154.png-M5178.png-M5154.png-M5146.png,0,1,0,0,0,0,0,30400
603,CFS,603,319,NA,Complete,congruent,aligned,S,F4,F4064.png,F4020.png,F4064.png,F4020.png,S,1,6.0287e-4,0.3,0.3,0.5,2017-04-03-10:21:12,-1.034559689355312,1,F4064.png-F4020.png-F4064.png-F4020.png,0,0,0,0,0,0,0,30400
603,CFS,603,320,NA,Complete,congruent,aligned,D,M1,M1119.png,M1186.png,M1125.png,M1122.png,D,1,0.11602482,0.3,0.3,0.5,2017-04-03-10:21:14,-0.6106886154326714,1,M1119.png-M1186.png-M1125.png-M1122.png,0,0,0,0,0,0,0,30400
603,monocular,603,1,NA,Complete,congruent,aligned,S,F5,F5033.png,F5078.png,F5033.png,F5078.png,S,1,0.420246109,0.3,0.3,0.5,2017-04-03-10:22:19,3.880376272586924,0,F5033.png-F5078.png-F5033.png-F5078.png,1,0,0,0,0,0,0,30400
603,monocular,603,2,NA,Complete,incongruent,misaligned,D,F4,F4064.png,F4020.png,F4018.png,F4020.png,S,0,0.220758994,0.3,0.3,0.5,2017-04-03-10:22:21,1.0217410314516069,1,F4064.png-F4020.png-F4018.png-F4020.png,1,1,1,1,1,1,1,30400
603,monocular,603,3,NA,Complete,congruent,misaligned,S,F3,F3047.png,F3062.png,F3047.png,F3062.png,S,1,0.075959263,0.3,0.3,0.5,2017-04-03-10:22:23,0.16833903603616382,1,F3047.png-F3062.png-F3047.png-F3062.png,1,0,1,0,1,0,0,30400
603,monocular,603,4,NA,Complete,congruent,aligned,S,F1,F1059.png,F1046.png,F1059.png,F1046.png,S,1,0.080756222,0.3,0.3,0.5,2017-04-03-10:22:26,0.18240141776233035,1,F1059.png-F1046.png-F1059.png-F1046.png,1,0,0,0,0,0,0,30400
603,monocular,603,5,NA,Complete,congruent,aligned,D,F3,F3112.png,F3079.png,F3047.png,F3062.png,D,1,0.181259698,0.3,0.3,0.5,2017-04-03-10:22:28,0.8509539639184633,1,F3112.png-F3079.png-F3047.png-F3062.png,1,0,0,0,0,0,0,30400
603,monocular,603,6,NA,Complete,congruent,misaligned,S,F3,F3079.png,F3047.png,F3079.png,F3047.png,S,1,0.245802062,0.3,0.3,0.5,2017-04-03-10:22:31,2.423227716145094,1,F3079.png-F3047.png-F3079.png-F3047.png,1,0,1,0,1,0,0,30400
603,monocular,603,7,NA,Complete,congruent,aligned,S,M2,M2141.png,M2198.png,M2141.png,M2198.png,S,1,0.055923577,0.3,0.3,0.5,2017-04-03-10:22:33,-0.08809411186970752,1,M2141.png-M2198.png-M2141.png-M2198.png,1,0,0,0,0,0,0,30400
603,monocular,603,8,NA,Complete,incongruent,aligned,D,F3,F3112.png,F3079.png,F3062.png,F3079.png,D,1,0.170440537,0.3,0.3,0.5,2017-04-03-10:22:35,0.6250685604927699,1,F3112.png-F3079.png-F3062.png-F3079.png,1,1,0,1,0,0,0,30400
603,monocular,603,9,NA,Complete,congruent,aligned,S,F2,F2067.png,F2032.png,F2067.png,F2032.png,S,1,0.150605009,0.3,0.3,0.5,2017-04-03-10:22:38,0.9432460492432058,1,F2067.png-F2032.png-F2067.png-F2032.png,1,0,0,0,0,0,0,30400
603,monocular,603,10,NA,Complete,incongruent,aligned,S,M3,M3183.png,M3153.png,M3183.png,M3013.png,S,1,0.085398871,0.3,0.3,0.5,2017-04-03-10:22:40,0.34893227615005845,1,M3183.png-M3153.png-M3183.png-M3013.png,1,1,0,1,0,0,0,30400
603,monocular,603,11,NA,Complete,congruent,aligned,S,F2,F2032.png,F2017.png,F2032.png,F2017.png,S,1,0.080945432,0.3,0.3,0.5,2017-04-03-10:22:42,0.18446243297684642,1,F2032.png-F2017.png-F2032.png-F2017.png,1,0,0,0,0,0,0,30400
603,monocular,603,12,NA,Complete,congruent,aligned,D,F1,F1046.png,F1015.png,F1002.png,F1059.png,D,1,0.206441679,0.3,0.3,0.5,2017-04-03-10:22:45,1.1600241108507456,1,F1046.png-F1015.png-F1002.png-F1059.png,1,0,0,0,0,0,0,30400
603,monocular,603,13,NA,Complete,congruent,misaligned,S,F4,F4064.png,F4020.png,F4064.png,F4020.png,S,1,0.080901295,0.3,0.3,0.5,2017-04-03-10:22:47,0.2339510730441979,1,F4064.png-F4020.png-F4064.png-F4020.png,1,0,1,0,1,0,0,30400
603,monocular,603,14,NA,Complete,incongruent,misaligned,D,M5,M5178.png,M5154.png,M5146.png,M5154.png,D,1,0.190461511,0.3,0.3,0.5,2017-04-03-10:22:49,0.6139608833844588,1,M5178.png-M5154.png-M5146.png-M5154.png,1,1,1,1,1,1,1,30400
603,monocular,603,15,NA,Complete,congruent,misaligned,D,F1,F1046.png,F1015.png,F1002.png,F1059.png,D,1,0.205625991,0.3,0.3,0.5,2017-04-03-10:22:52,0.9444136535947883,1,F1046.png-F1015.png-F1002.png-F1059.png,1,0,1,0,1,0,0,30400
603,monocular,603,16,NA,Complete,incongruent,aligned,S,M1,M1122.png,M1186.png,M1122.png,M1119.png,S,1,6.00817e-4,0.3,0.3,0.5,2017-04-03-10:22:54,-0.7290219830653956,1,M1122.png-M1186.png-M1122.png-M1119.png,1,1,0,1,0,0,0,30400
603,monocular,603,17,NA,Complete,incongruent,misaligned,D,M4,M4197.png,M4136.png,M4188.png,M4136.png,D,1,0.096295701,0.3,0.3,0.5,2017-04-03-10:22:56,-0.4764482067611965,1,M4197.png-M4136.png-M4188.png-M4136.png,1,1,1,1,1,1,1,30400
603,monocular,603,18,NA,Complete,congruent,aligned,S,F3,F3079.png,F3047.png,F3079.png,F3047.png,S,1,0.171351001,0.3,0.3,0.5,2017-04-03-10:22:59,1.1692267328869344,1,F3079.png-F3047.png-F3079.png-F3047.png,1,0,0,0,0,0,0,30400
603,monocular,603,19,NA,Complete,incongruent,aligned,S,M4,M4188.png,M4197.png,M4188.png,M4136.png,S,1,6.4996e-4,0.3,0.3,0.5,2017-04-03-10:23:01,-0.7283972764399272,1,M4188.png-M4197.png-M4188.png-M4136.png,1,1,0,1,0,0,0,30400
603,monocular,603,20,NA,Complete,incongruent,aligned,S,M3,M3153.png,M3013.png,M3153.png,M3187.png,S,1,0.300489789,0.3,0.3,0.5,2017-04-03-10:23:04,3.083171568677479,0,M3153.png-M3013.png-M3153.png-M3187.png,1,1,0,1,0,0,0,30400
603,monocular,603,21,NA,Complete,congruent,aligned,D,M1,M1186.png,M1119.png,M1125.png,M1122.png,D,1,0.241426291,0.3,0.3,0.5,2017-04-03-10:23:06,1.589406500235,1,M1186.png-M1119.png-M1125.png-M1122.png,1,0,0,0,0,0,0,30400
603,monocular,603,22,NA,Complete,congruent,aligned,S,F5,F5068.png,F5076.png,F5068.png,F5076.png,S,1,0.195480868,0.3,0.3,0.5,2017-04-03-10:23:08,1.4320670849362482,1,F5068.png-F5076.png-F5068.png-F5076.png,1,0,0,0,0,0,0,30400
603,monocular,603,23,NA,Complete,incongruent,aligned,D,F4,F4064.png,F4020.png,F4018.png,F4020.png,S,0,0.105573488,0.3,0.3,0.5,2017-04-03-10:23:11,1.435641041062525,1,F4064.png-F4020.png-F4018.png-F4020.png,1,1,0,1,0,0,0,30400
603,monocular,603,24,NA,Complete,congruent,aligned,D,F2,F2017.png,F2016.png,F2067.png,F2032.png,D,1,0.135486719,0.3,0.3,0.5,2017-04-03-10:23:13,0.28916093639381096,1,F2017.png-F2016.png-F2067.png-F2032.png,1,0,0,0,0,0,0,30400
603,monocular,603,25,NA,Complete,congruent,aligned,D,M1,M1119.png,M1125.png,M1122.png,M1186.png,D,1,0.12602795,0.3,0.3,0.5,2017-04-03-10:23:15,0.17306907195198967,1,M1119.png-M1125.png-M1122.png-M1186.png,1,0,0,0,0,0,0,30400
603,monocular,603,26,NA,Complete,incongruent,misaligned,D,M5,M5152.png,M5146.png,M5154.png,M5146.png,S,0,0.150813721,0.3,0.3,0.5,2017-04-03-10:23:18,-1.157622278262729,1,M5152.png-M5146.png-M5154.png-M5146.png,1,1,1,1,1,1,1,30400
603,monocular,603,27,NA,Complete,congruent,aligned,S,F2,F2016.png,F2067.png,F2016.png,F2067.png,S,1,6.01015e-4,0.3,0.3,0.5,2017-04-03-10:23:20,-0.690708360524704,1,F2016.png-F2067.png-F2016.png-F2067.png,1,0,0,0,0,0,0,30400
603,monocular,603,28,NA,Complete,congruent,misaligned,D,M1,M1122.png,M1186.png,M1119.png,M1125.png,D,1,0.086415996,0.3,0.3,0.5,2017-04-03-10:23:22,-0.3014370058447927,1,M1122.png-M1186.png-M1119.png-M1125.png,1,0,1,0,1,0,0,30400
603,monocular,603,29,NA,Complete,congruent,aligned,D,F1,F1059.png,F1046.png,F1015.png,F1002.png,D,1,0.205964036,0.3,0.3,0.5,2017-04-03-10:23:25,1.1541617765017849,1,F1059.png-F1046.png-F1015.png-F1002.png,1,0,0,0,0,0,0,30400
603,monocular,603,30,NA,Complete,congruent,misaligned,S,M3,M3013.png,M3187.png,M3013.png,M3187.png,S,1,0.116535037,0.3,0.3,0.5,2017-04-03-10:23:27,0.7070363138598663,1,M3013.png-M3187.png-M3013.png-M3187.png,1,0,1,0,1,0,0,30400
603,monocular,603,31,NA,Complete,incongruent,aligned,S,F3,F3062.png,F3112.png,F3062.png,F3079.png,S,1,0.170655065,0.3,0.3,0.5,2017-04-03-10:23:30,1.4327104185918536,1,F3062.png-F3112.png-F3062.png-F3079.png,1,1,0,1,0,0,0,30400
603,monocular,603,32,NA,Complete,incongruent,aligned,D,F2,F2017.png,F2016.png,F2032.png,F2016.png,D,1,0.125942413,0.3,0.3,0.5,2017-04-03-10:23:32,0.14147390814237654,1,F2017.png-F2016.png-F2032.png-F2016.png,1,1,0,1,0,0,0,30400
603,monocular,603,33,NA,Complete,congruent,aligned,D,F3,F3047.png,F3062.png,F3112.png,F3079.png,D,1,0.255640276,0.3,0.3,0.5,2017-04-03-10:23:34,1.7638613388929774,1,F3047.png-F3062.png-F3112.png-F3079.png,1,0,0,0,0,0,0,30400
603,monocular,603,34,NA,Complete,incongruent,misaligned,S,M3,M3013.png,M3187.png,M3013.png,M3183.png,S,1,6.15872e-4,0.3,0.3,0.5,2017-04-03-10:23:37,-0.7986141703324664,1,M3013.png-M3187.png-M3013.png-M3183.png,1,1,1,1,1,1,1,30400
603,monocular,603,35,NA,Complete,incongruent,aligned,S,F5,F5078.png,F5068.png,F5078.png,F5076.png,S,1,5.92948e-4,0.3,0.3,0.5,2017-04-03-10:23:39,-0.7291220139230113,1,F5078.png-F5068.png-F5078.png-F5076.png,1,1,0,1,0,0,0,30400
603,monocular,603,36,NA,Complete,incongruent,misaligned,S,F5,F5078.png,F5068.png,F5078.png,F5076.png,S,1,5.88842e-4,0.3,0.3,0.5,2017-04-03-10:23:41,-0.7990573357004551,1,F5078.png-F5068.png-F5078.png-F5076.png,1,1,1,1,1,1,1,30400
603,monocular,603,37,NA,Complete,incongruent,misaligned,S,F1,F1059.png,F1046.png,F1059.png,F1015.png,S,1,0.006057786,0.3,0.3,0.5,2017-04-03-10:23:43,-0.7093922753871371,1,F1059.png-F1046.png-F1059.png-F1015.png,1,1,1,1,1,1,1,30400
603,monocular,603,38,NA,Complete,incongruent,aligned,D,F3,F3047.png,F3062.png,F3079.png,F3062.png,D,1,0.115565311,0.3,0.3,0.5,2017-04-03-10:23:46,0.028698119345200026,1,F3047.png-F3062.png-F3079.png-F3062.png,1,1,0,1,0,0,0,30400
603,monocular,603,39,NA,Complete,incongruent,aligned,D,F4,F4018.png,F4064.png,F4040.png,F4064.png,D,1,0.180664355,0.3,0.3,0.5,2017-04-03-10:23:48,0.7361784965297069,1,F4018.png-F4064.png-F4040.png-F4064.png,1,1,0,1,0,0,0,30400
603,monocular,603,40,NA,Complete,incongruent,aligned,D,M3,M3187.png,M3183.png,M3013.png,M3183.png,D,1,0.095552206,0.3,0.3,0.5,2017-04-03-10:23:50,-0.1887993768397385,1,M3187.png-M3183.png-M3013.png-M3183.png,1,1,0,1,0,0,0,30400
603,monocular,603,41,NA,Complete,incongruent,aligned,D,M4,M4197.png,M4136.png,M4188.png,M4136.png,D,1,0.013472201,0.3,0.3,0.5,2017-04-03-10:24:05,-1.0808246559929349,1,M4197.png-M4136.png-M4188.png-M4136.png,1,1,0,1,0,0,0,30400
603,monocular,603,42,NA,Complete,incongruent,misaligned,D,M1,M1125.png,M1122.png,M1119.png,M1122.png,D,1,0.125831898,0.3,0.3,0.5,2017-04-03-10:24:07,-0.13442876576522533,1,M1125.png-M1122.png-M1119.png-M1122.png,1,1,1,1,1,1,1,30400
603,monocular,603,43,NA,Complete,congruent,misaligned,D,M3,M3153.png,M3013.png,M3187.png,M3183.png,D,1,0.445546817,0.3,0.3,0.5,2017-04-03-10:24:10,3.451800045863229,0,M3153.png-M3013.png-M3187.png-M3183.png,1,0,1,0,1,0,0,30400
603,monocular,603,44,NA,Complete,congruent,misaligned,D,F5,F5078.png,F5068.png,F5076.png,F5033.png,D,1,0.125734042,0.3,0.3,0.5,2017-04-03-10:24:12,0.10947160577771237,1,F5078.png-F5068.png-F5076.png-F5033.png,1,0,1,0,1,0,0,30400
603,monocular,603,45,NA,Complete,incongruent,misaligned,S,M1,M1119.png,M1125.png,M1119.png,M1122.png,S,1,0.005520951,0.3,0.3,0.5,2017-04-03-10:24:14,-0.7181938543854411,1,M1119.png-M1125.png-M1119.png-M1122.png,1,1,1,1,1,1,1,30400
603,monocular,603,46,NA,Complete,incongruent,aligned,D,M5,M5152.png,M5146.png,M5154.png,M5146.png,S,0,0.02630728,0.3,0.3,0.5,2017-04-03-10:24:17,-0.3225213050516755,1,M5152.png-M5146.png-M5154.png-M5146.png,1,1,0,1,0,0,0,30400
603,monocular,603,47,NA,Complete,congruent,aligned,D,M5,M5178.png,M5154.png,M5152.png,M5146.png,D,1,0.036218067,0.3,0.3,0.5,2017-04-03-10:24:19,-0.929209328416158,1,M5178.png-M5154.png-M5152.png-M5146.png,1,0,0,0,0,0,0,30400
603,monocular,603,48,NA,Complete,congruent,misaligned,D,F2,F2017.png,F2016.png,F2067.png,F2032.png,D,1,0.12578821,0.3,0.3,0.5,2017-04-03-10:24:21,0.11003770963939401,1,F2017.png-F2016.png-F2067.png-F2032.png,1,0,1,0,1,0,0,30400
603,monocular,603,49,NA,Complete,incongruent,aligned,D,F5,F5068.png,F5076.png,F5078.png,F5076.png,D,1,0.150574215,0.3,0.3,0.5,2017-04-03-10:24:24,0.4091662658011787,1,F5068.png-F5076.png-F5078.png-F5076.png,1,1,0,1,0,0,0,30400
603,monocular,603,50,NA,Complete,incongruent,misaligned,S,M2,M2198.png,M2201.png,M2198.png,M2142.png,S,1,5.91291e-4,0.3,0.3,0.5,2017-04-03-10:24:26,-0.7990171835736994,1,M2198.png-M2201.png-M2198.png-M2142.png,1,1,1,1,1,1,1,30400
603,monocular,603,51,NA,Complete,incongruent,misaligned,S,F3,F3112.png,F3079.png,F3112.png,F3047.png,S,1,0.016291869,0.3,0.3,0.5,2017-04-03-10:24:28,-0.5416012595262139,1,F3112.png-F3079.png-F3112.png-F3047.png,1,1,1,1,1,1,1,30400
603,monocular,603,52,NA,Complete,incongruent,aligned,D,F1,F1015.png,F1002.png,F1046.png,F1002.png,S,0,0.126371128,0.3,0.3,0.5,2017-04-03-10:24:30,1.896942627938468,1,F1015.png-F1002.png-F1046.png-F1002.png,1,1,0,1,0,0,0,30400
603,monocular,603,53,NA,Complete,incongruent,aligned,D,M3,M3183.png,M3153.png,M3187.png,M3153.png,D,1,0.086193688,0.3,0.3,0.5,2017-04-03-10:24:33,-0.2905054455882749,1,M3183.png-M3153.png-M3187.png-M3153.png,1,1,0,1,0,0,0,30400
603,monocular,603,54,NA,Complete,congruent,aligned,D,F4,F4018.png,F4064.png,F4020.png,F4040.png,S,0,0.195790172,0.3,0.3,0.5,2017-04-03-10:24:35,0.5265874969888293,1,F4018.png-F4064.png-F4020.png-F4040.png,1,0,0,0,0,0,0,30400
603,monocular,603,55,NA,Complete,incongruent,aligned,S,M3,M3013.png,M3187.png,M3013.png,M3183.png,S,1,5.75156e-4,0.3,0.3,0.5,2017-04-03-10:24:37,-0.7293481861200757,1,M3013.png-M3187.png-M3013.png-M3183.png,1,1,0,1,0,0,0,30400
603,monocular,603,56,NA,Complete,congruent,aligned,S,M4,M4197.png,M4136.png,M4197.png,M4136.png,S,1,0.010750389,0.3,0.3,0.5,2017-04-03-10:24:40,-0.5801538748642503,1,M4197.png-M4136.png-M4197.png-M4136.png,1,0,0,0,0,0,0,30400
603,monocular,603,57,NA,Complete,congruent,misaligned,S,M5,M5146.png,M5178.png,M5146.png,M5178.png,D,0,5.71735e-4,0.3,0.3,0.5,2017-04-03-10:24:42,NaN,NA,M5146.png-M5178.png-M5146.png-M5178.png,1,0,1,0,1,0,0,30400
603,monocular,603,58,NA,Complete,congruent,misaligned,S,M5,M5152.png,M5146.png,M5152.png,M5146.png,S,1,0.006159747,0.3,0.3,0.5,2017-04-03-10:24:44,-0.7583422211744064,1,M5152.png-M5146.png-M5152.png-M5146.png,1,0,1,0,1,0,0,30400
603,monocular,603,59,NA,Complete,congruent,misaligned,D,F2,F2016.png,F2067.png,F2032.png,F2017.png,D,1,0.050617155,0.3,0.3,0.5,2017-04-03-10:24:46,-0.6755667897360067,1,F2016.png-F2067.png-F2032.png-F2017.png,1,0,1,0,1,0,0,30400
603,monocular,603,60,NA,Complete,congruent,misaligned,D,M1,M1186.png,M1119.png,M1125.png,M1122.png,D,1,0.055483229,0.3,0.3,0.5,2017-04-03-10:24:49,-0.6247119809443294,1,M1186.png-M1119.png-M1125.png-M1122.png,1,0,1,0,1,0,0,30400
603,monocular,603,61,NA,Complete,congruent,aligned,S,M3,M3013.png,M3187.png,M3013.png,M3187.png,S,1,0.031326332,0.3,0.3,0.5,2017-04-03-10:24:51,-0.3560254906561395,1,M3013.png-M3187.png-M3013.png-M3187.png,1,0,0,0,0,0,0,30400
603,monocular,603,62,NA,Complete,incongruent,misaligned,S,F3,F3079.png,F3047.png,F3079.png,F3062.png,S,1,6.18465e-4,0.3,0.3,0.5,2017-04-03-10:24:53,-0.7985716572803321,1,F3079.png-F3047.png-F3079.png-F3062.png,1,1,1,1,1,1,1,30400
603,monocular,603,63,NA,Complete,incongruent,aligned,S,M5,M5178.png,M5154.png,M5178.png,M5152.png,S,1,6.93252e-4,0.3,0.3,0.5,2017-04-03-10:24:55,-0.7278469478228348,1,M5178.png-M5154.png-M5178.png-M5152.png,1,1,0,1,0,0,0,30400
603,monocular,603,64,NA,Complete,congruent,misaligned,D,F5,F5068.png,F5076.png,F5033.png,F5078.png,D,1,3.23333e-4,0.3,0.3,0.5,2017-04-03-10:24:58,-1.201182039568346,1,F5068.png-F5076.png-F5033.png-F5078.png,1,0,1,0,1,0,0,30400
603,monocular,603,65,NA,Complete,incongruent,aligned,S,F5,F5076.png,F5033.png,F5076.png,F5078.png,S,1,0.061356595,0.3,0.3,0.5,2017-04-03-10:25:00,0.043306467621085726,1,F5076.png-F5033.png-F5076.png-F5078.png,1,1,0,1,0,0,0,30400
603,monocular,603,66,NA,Complete,incongruent,misaligned,D,M2,M2198.png,M2201.png,M2141.png,M2201.png,D,1,0.155895008,0.3,0.3,0.5,2017-04-03-10:25:02,0.21369215436543304,1,M2198.png-M2201.png-M2141.png-M2201.png,1,1,1,1,1,1,1,30400
603,monocular,603,67,NA,Complete,congruent,misaligned,S,F1,F1015.png,F1002.png,F1015.png,F1002.png,S,1,0.046361479,0.3,0.3,0.5,2017-04-03-10:25:05,-0.22461084756713945,1,F1015.png-F1002.png-F1015.png-F1002.png,1,0,1,0,1,0,0,30400
603,monocular,603,68,NA,Complete,incongruent,aligned,S,M2,M2198.png,M2201.png,M2198.png,M2142.png,S,1,0.160493931,0.3,0.3,0.5,2017-04-03-10:25:07,1.303541915812781,1,M2198.png-M2201.png-M2198.png-M2142.png,1,1,0,1,0,0,0,30400
603,monocular,603,69,NA,Complete,incongruent,aligned,S,F4,F4020.png,F4040.png,F4020.png,F4018.png,S,1,0.066075544,0.3,0.3,0.5,2017-04-03-10:25:09,0.10329382503816169,1,F4020.png-F4040.png-F4020.png-F4018.png,1,1,0,1,0,0,0,30400
603,monocular,603,70,NA,Complete,incongruent,misaligned,S,M5,M5178.png,M5154.png,M5178.png,M5152.png,S,1,0.006285316,0.3,0.3,0.5,2017-04-03-10:25:11,-0.7056618493354004,1,M5178.png-M5154.png-M5178.png-M5152.png,1,1,1,1,1,1,1,30400
603,monocular,603,71,NA,Complete,congruent,aligned,S,F3,F3047.png,F3062.png,F3047.png,F3062.png,S,1,0.100854865,0.3,0.3,0.5,2017-04-03-10:25:14,0.40133069747338207,1,F3047.png-F3062.png-F3047.png-F3062.png,1,0,0,0,0,0,0,30400
603,monocular,603,72,NA,Complete,incongruent,misaligned,S,M4,M4134.png,M4188.png,M4134.png,M4197.png,S,1,5.90895e-4,0.3,0.3,0.5,2017-04-03-10:25:16,-0.7990236761184913,1,M4134.png-M4188.png-M4134.png-M4197.png,1,1,1,1,1,1,1,30400
603,monocular,603,73,NA,Complete,incongruent,aligned,S,M1,M1186.png,M1119.png,M1186.png,M1125.png,S,1,5.98422e-4,0.3,0.3,0.5,2017-04-03-10:25:18,-0.7290524283448453,1,M1186.png-M1119.png-M1186.png-M1125.png,1,1,0,1,0,0,0,30400
603,monocular,603,74,NA,Complete,incongruent,aligned,D,F5,F5033.png,F5078.png,F5076.png,F5078.png,D,1,0.061292271,0.3,0.3,0.5,2017-04-03-10:25:21,-0.5611279126645763,1,F5033.png-F5078.png-F5076.png-F5078.png,1,1,0,1,0,0,0,30400
603,monocular,603,75,NA,Complete,congruent,aligned,S,M3,M3153.png,M3013.png,M3153.png,M3013.png,S,1,5.7584e-4,0.3,0.3,0.5,2017-04-03-10:25:23,-0.69098258523812,1,M3153.png-M3013.png-M3153.png-M3013.png,1,0,0,0,0,0,0,30400
603,monocular,603,76,NA,Complete,congruent,aligned,D,M3,M3187.png,M3183.png,M3153.png,M3013.png,D,1,0.150603298,0.3,0.3,0.5,2017-04-03-10:25:25,0.4746937303643668,1,M3187.png-M3183.png-M3153.png-M3013.png,1,0,0,0,0,0,0,30400
603,monocular,603,77,NA,Complete,incongruent,misaligned,S,M2,M2142.png,M2141.png,M2142.png,M2198.png,S,1,0.230422711,0.3,0.3,0.5,2017-04-03-10:25:28,2.969141374311608,1,M2142.png-M2141.png-M2142.png-M2198.png,1,1,1,1,1,1,1,30400
603,monocular,603,78,NA,Complete,congruent,aligned,D,F5,F5068.png,F5076.png,F5033.png,F5078.png,D,1,0.05625177,0.3,0.3,0.5,2017-04-03-10:25:30,-0.6833263881578954,1,F5068.png-F5076.png-F5033.png-F5078.png,1,0,0,0,0,0,0,30400
603,monocular,603,79,NA,Complete,congruent,misaligned,S,F5,F5068.png,F5076.png,F5068.png,F5076.png,S,1,5.84052e-4,0.3,0.3,0.5,2017-04-03-10:25:32,-0.8323669759079878,1,F5068.png-F5076.png-F5068.png-F5076.png,1,0,1,0,1,0,0,30400
603,monocular,603,80,NA,Complete,incongruent,aligned,D,M2,M2198.png,M2201.png,M2141.png,M2201.png,D,1,0.505616582,0.3,0.3,0.5,2017-04-03-10:25:35,4.267679268260019,0,M2198.png-M2201.png-M2141.png-M2201.png,1,1,0,1,0,0,0,30400
603,monocular,603,81,NA,Complete,incongruent,aligned,D,M3,M3013.png,M3187.png,M3153.png,M3187.png,D,1,0.095657247,0.3,0.3,0.5,2017-04-03-10:25:49,-0.1876578171219055,1,M3013.png-M3187.png-M3153.png-M3187.png,1,1,0,1,0,0,0,30400
603,monocular,603,82,NA,Complete,congruent,misaligned,S,M1,M1122.png,M1186.png,M1122.png,M1186.png,S,1,0.01084756,0.3,0.3,0.5,2017-04-03-10:25:51,-0.6961052789525141,1,M1122.png-M1186.png-M1122.png-M1186.png,1,0,1,0,1,0,0,30400
603,monocular,603,83,NA,Complete,congruent,misaligned,S,M5,M5154.png,M5152.png,M5154.png,M5152.png,S,1,5.73445e-4,0.3,0.3,0.5,2017-04-03-10:25:53,-0.8325077979173443,1,M5154.png-M5152.png-M5154.png-M5152.png,1,0,1,0,1,0,0,30400
603,monocular,603,84,NA,Complete,incongruent,misaligned,D,M4,M4134.png,M4188.png,M4136.png,M4188.png,D,1,0.211199291,0.3,0.3,0.5,2017-04-03-10:25:55,0.8540975510501516,1,M4134.png-M4188.png-M4136.png-M4188.png,1,1,1,1,1,1,1,30400
603,monocular,603,85,NA,Complete,incongruent,aligned,D,M2,M2141.png,M2198.png,M2142.png,M2198.png,D,1,0.025782457,0.3,0.3,0.5,2017-04-03-10:25:58,-0.9470398256332473,1,M2141.png-M2198.png-M2142.png-M2198.png,1,1,0,1,0,0,0,30400
603,monocular,603,86,NA,Complete,congruent,aligned,D,M4,M4197.png,M4136.png,M4134.png,M4188.png,D,1,0.070507769,0.3,0.3,0.5,2017-04-03-10:26:00,-0.5083558921672714,1,M4197.png-M4136.png-M4134.png-M4188.png,1,0,0,0,0,0,0,30400
603,monocular,603,87,NA,Complete,congruent,aligned,D,F4,F4064.png,F4020.png,F4040.png,F4018.png,D,1,0.075814534,0.3,0.3,0.5,2017-04-03-10:26:02,-0.4432235009433603,1,F4064.png-F4020.png-F4040.png-F4018.png,1,0,0,0,0,0,0,30400
603,monocular,603,88,NA,Complete,congruent,aligned,S,M5,M5152.png,M5146.png,M5152.png,M5146.png,S,1,0.070539932,0.3,0.3,0.5,2017-04-03-10:26:05,0.07111803355478852,1,M5152.png-M5146.png-M5152.png-M5146.png,1,0,0,0,0,0,0,30400
603,monocular,603,89,NA,Complete,congruent,misaligned,S,F5,F5078.png,F5068.png,F5078.png,F5068.png,S,1,5.77551e-4,0.3,0.3,0.5,2017-04-03-10:26:07,-0.8324532853152498,1,F5078.png-F5068.png-F5078.png-F5068.png,1,0,1,0,1,0,0,30400
603,monocular,603,90,NA,Complete,congruent,misaligned,S,F5,F5033.png,F5078.png,F5033.png,F5078.png,S,1,7.28312e-4,0.3,0.3,0.5,2017-04-03-10:26:09,-0.8304517328543657,1,F5033.png-F5078.png-F5033.png-F5078.png,1,0,1,0,1,0,0,30400
603,monocular,603,91,NA,Complete,congruent,aligned,D,M4,M4134.png,M4188.png,M4197.png,M4136.png,D,1,0.006388069,0.3,0.3,0.5,2017-04-03-10:26:11,-1.295326746456053,1,M4134.png-M4188.png-M4197.png-M4136.png,1,0,0,0,0,0,0,30400
603,monocular,603,92,NA,Complete,congruent,misaligned,S,M2,M2201.png,M2142.png,M2201.png,M2142.png,S,1,0.070947434,0.3,0.3,0.5,2017-04-03-10:26:14,0.10180035117416002,1,M2201.png-M2142.png-M2201.png-M2142.png,1,0,1,0,1,0,0,30400
603,monocular,603,93,NA,Complete,congruent,aligned,S,M1,M1122.png,M1186.png,M1122.png,M1186.png,S,1,5.7413e-4,0.3,0.3,0.5,2017-04-03-10:26:16,-0.6910012118224274,1,M1122.png-M1186.png-M1122.png-M1186.png,1,0,0,0,0,0,0,30400
603,monocular,603,94,NA,Complete,congruent,misaligned,D,F3,F3112.png,F3079.png,F3047.png,F3062.png,D,1,0.055944448,0.3,0.3,0.5,2017-04-03-10:26:18,-0.6198918314652856,1,F3112.png-F3079.png-F3047.png-F3062.png,1,0,1,0,1,0,0,30400
603,monocular,603,95,NA,Complete,incongruent,misaligned,S,M1,M1186.png,M1119.png,M1186.png,M1125.png,S,1,0.155486821,0.3,0.3,0.5,2017-04-03-10:26:20,1.7405438431461473,1,M1186.png-M1119.png-M1186.png-M1125.png,1,1,1,1,1,1,1,30400
603,monocular,603,96,NA,Complete,congruent,aligned,D,M5,M5152.png,M5146.png,M5178.png,M5154.png,D,1,0.136337306,0.3,0.3,0.5,2017-04-03-10:26:23,0.2996005856441493,1,M5152.png-M5146.png-M5178.png-M5154.png,1,0,0,0,0,0,0,30400
603,monocular,603,97,NA,Complete,congruent,misaligned,S,F1,F1002.png,F1059.png,F1002.png,F1059.png,S,1,0.100871288,0.3,0.3,0.5,2017-04-03-10:26:25,0.4990792469949498,1,F1002.png-F1059.png-F1002.png-F1059.png,1,0,1,0,1,0,0,30400
603,monocular,603,98,NA,Complete,congruent,aligned,D,M5,M5154.png,M5152.png,M5146.png,M5178.png,D,1,0.050603972,0.3,0.3,0.5,2017-04-03-10:26:27,-0.7526444357612134,1,M5154.png-M5152.png-M5146.png-M5178.png,1,0,0,0,0,0,0,30400
603,monocular,603,99,NA,Complete,congruent,aligned,S,M4,M4188.png,M4197.png,M4188.png,M4197.png,S,1,0.015454283,0.3,0.3,0.5,2017-04-03-10:26:30,-0.5289155835399485,1,M4188.png-M4197.png-M4188.png-M4197.png,1,0,0,0,0,0,0,30400
603,monocular,603,100,NA,Complete,congruent,misaligned,S,M4,M4188.png,M4197.png,M4188.png,M4197.png,S,1,0.090602504,0.3,0.3,0.5,2017-04-03-10:26:32,0.36274750413381324,1,M4188.png-M4197.png-M4188.png-M4197.png,1,0,1,0,1,0,0,30400
603,monocular,603,101,NA,Complete,congruent,misaligned,D,M3,M3013.png,M3187.png,M3183.png,M3153.png,D,1,0.015785143,0.3,0.3,0.5,2017-04-03-10:26:34,-1.0395923491683965,1,M3013.png-M3187.png-M3183.png-M3153.png,1,0,1,0,1,0,0,30400
603,monocular,603,102,NA,Complete,incongruent,aligned,S,F3,F3079.png,F3047.png,F3079.png,F3062.png,S,1,0.021061113,0.3,0.3,0.5,2017-04-03-10:26:36,-0.4689303632976953,1,F3079.png-F3047.png-F3079.png-F3062.png,1,1,0,1,0,0,0,30400
603,monocular,603,103,NA,Complete,incongruent,misaligned,D,M3,M3013.png,M3187.png,M3153.png,M3187.png,D,1,0.181251486,0.3,0.3,0.5,2017-04-03-10:26:39,0.5073118248730016,1,M3013.png-M3187.png-M3153.png-M3187.png,1,1,1,1,1,1,1,30400
603,monocular,603,104,NA,Complete,incongruent,misaligned,D,F4,F4040.png,F4018.png,F4020.png,F4018.png,D,1,0.105710674,0.3,0.3,0.5,2017-04-03-10:26:41,-0.36742591785744344,1,F4040.png-F4018.png-F4020.png-F4018.png,1,1,1,1,1,1,1,30400
603,monocular,603,105,NA,Complete,congruent,aligned,S,M2,M2142.png,M2141.png,M2142.png,M2141.png,S,1,0.011207161,0.3,0.3,0.5,2017-04-03-10:26:43,-0.5751783765207962,1,M2142.png-M2141.png-M2142.png-M2141.png,1,0,0,0,0,0,0,30400
603,monocular,603,106,NA,Complete,congruent,misaligned,S,M5,M5178.png,M5154.png,M5178.png,M5154.png,S,1,5.98278e-4,0.3,0.3,0.5,2017-04-03-10:26:46,-0.8321781068681929,1,M5178.png-M5154.png-M5178.png-M5154.png,1,0,1,0,1,0,0,30400
603,monocular,603,107,NA,Complete,congruent,misaligned,S,M1,M1119.png,M1125.png,M1119.png,M1125.png,S,1,6.36616e-4,0.3,0.3,0.5,2017-04-03-10:26:48,-0.8316691190116159,1,M1119.png-M1125.png-M1119.png-M1125.png,1,0,1,0,1,0,0,30400
603,monocular,603,108,NA,Complete,incongruent,aligned,D,F2,F2016.png,F2067.png,F2017.png,F2067.png,D,1,6.14899e-4,0.3,0.3,0.5,2017-04-03-10:26:50,-1.2205546475506468,1,F2016.png-F2067.png-F2017.png-F2067.png,1,1,0,1,0,0,0,30400
603,monocular,603,109,NA,Complete,congruent,misaligned,D,F2,F2032.png,F2017.png,F2016.png,F2067.png,D,1,0.246225357,0.3,0.3,0.5,2017-04-03-10:26:53,1.3687132008259488,1,F2032.png-F2017.png-F2016.png-F2067.png,1,0,1,0,1,0,0,30400
603,monocular,603,110,NA,Complete,incongruent,aligned,S,M2,M2201.png,M2142.png,M2201.png,M2141.png,S,1,0.046361046,0.3,0.3,0.5,2017-04-03-10:26:55,-0.1473171982689834,1,M2201.png-M2142.png-M2201.png-M2141.png,1,1,0,1,0,0,0,30400
603,monocular,603,111,NA,Complete,congruent,misaligned,D,M5,M5152.png,M5146.png,M5178.png,M5154.png,D,1,0.120528555,0.3,0.3,0.5,2017-04-03-10:26:57,0.055069628731625256,1,M5152.png-M5146.png-M5178.png-M5154.png,1,0,1,0,1,0,0,30400
603,monocular,603,112,NA,Complete,congruent,misaligned,S,M3,M3187.png,M3183.png,M3187.png,M3183.png,S,1,5.78235e-4,0.3,0.3,0.5,2017-04-03-10:26:59,-0.8324442043070099,1,M3187.png-M3183.png-M3187.png-M3183.png,1,0,1,0,1,0,0,30400
603,monocular,603,113,NA,Complete,incongruent,misaligned,D,F3,F3047.png,F3062.png,F3079.png,F3062.png,D,1,0.160565028,0.3,0.3,0.5,2017-04-03-10:27:02,0.2677694490774098,1,F3047.png-F3062.png-F3079.png-F3062.png,1,1,1,1,1,1,1,30400
603,monocular,603,114,NA,Complete,incongruent,aligned,S,M2,M2141.png,M2198.png,M2141.png,M2201.png,S,1,6.55219e-4,0.3,0.3,0.5,2017-04-03-10:27:04,-0.7283304239453026,1,M2141.png-M2198.png-M2141.png-M2201.png,1,1,0,1,0,0,0,30400
603,monocular,603,115,NA,Complete,congruent,misaligned,S,M1,M1125.png,M1122.png,M1125.png,M1122.png,S,1,0.015917213,0.3,0.3,0.5,2017-04-03-10:27:06,-0.628798903709721,1,M1125.png-M1122.png-M1125.png-M1122.png,1,0,1,0,1,0,0,30400
603,monocular,603,116,NA,Complete,congruent,aligned,D,M1,M1125.png,M1122.png,M1186.png,M1119.png,D,1,0.066144658,0.3,0.3,0.5,2017-04-03-10:27:09,-0.5619063796309803,1,M1125.png-M1122.png-M1186.png-M1119.png,1,0,0,0,0,0,0,30400
603,monocular,603,117,NA,Complete,incongruent,misaligned,D,M5,M5154.png,M5152.png,M5178.png,M5152.png,D,1,0.276276491,0.3,0.3,0.5,2017-04-03-10:27:11,1.6076701103604452,1,M5154.png-M5152.png-M5178.png-M5152.png,1,1,1,1,1,1,1,30400
603,monocular,603,118,NA,Complete,incongruent,misaligned,S,F2,F2016.png,F2067.png,F2016.png,F2032.png,S,1,0.026044203,0.3,0.3,0.5,2017-04-03-10:27:13,-0.38170867033429284,1,F2016.png-F2067.png-F2016.png-F2032.png,1,1,1,1,1,1,1,30400
603,monocular,603,119,NA,Complete,incongruent,misaligned,S,M5,M5152.png,M5146.png,M5152.png,M5178.png,S,1,5.96423e-4,0.3,0.3,0.5,2017-04-03-10:27:15,-0.7989330428164476,1,M5152.png-M5146.png-M5152.png-M5178.png,1,1,1,1,1,1,1,30400
603,monocular,603,120,NA,Complete,incongruent,aligned,D,M4,M4188.png,M4197.png,M4134.png,M4197.png,D,1,0.155770374,0.3,0.3,0.5,2017-04-03-10:27:18,0.46563684207002,1,M4188.png-M4197.png-M4134.png-M4197.png,1,1,0,1,0,0,0,30400
603,monocular,603,121,NA,Complete,congruent,misaligned,D,F4,F4064.png,F4020.png,F4040.png,F4018.png,D,1,0.030872297,0.3,0.3,0.5,2017-04-03-10:27:31,-0.8819181477730645,1,F4064.png-F4020.png-F4040.png-F4018.png,1,0,1,0,1,0,0,30400
603,monocular,603,122,NA,Complete,congruent,misaligned,D,M4,M4136.png,M4134.png,M4188.png,M4197.png,D,1,0.035371585,0.3,0.3,0.5,2017-04-03-10:27:34,-0.8348965794741263,1,M4136.png-M4134.png-M4188.png-M4197.png,1,0,1,0,1,0,0,30400
603,monocular,603,123,NA,Complete,incongruent,aligned,D,F4,F4020.png,F4040.png,F4064.png,F4040.png,S,0,0.030841809,0.3,0.3,0.5,2017-04-03-10:27:36,-0.22194328641903335,1,F4020.png-F4040.png-F4064.png-F4040.png,1,1,0,1,0,0,0,30400
603,monocular,603,124,NA,Complete,congruent,aligned,S,F2,F2017.png,F2016.png,F2017.png,F2016.png,S,1,0.061342567,0.3,0.3,0.5,2017-04-03-10:27:38,-0.029066466199231554,1,F2017.png-F2016.png-F2017.png-F2016.png,1,0,0,0,0,0,0,30400
